version,dimension,key1,key2,pid,pstatus,trial,rt,attempt,correct,block,stimulus
task-llso,arousal,cold_left,NA,1667928,complete,BEGIN TASK,,NA,0,NA,
task-llso,arousal,cold_left,NA,1667928,complete,1,8481.43,NA,0,NA,
task-llso,arousal,cold_left,NA,1667928,complete,1,740.92,NA,0,NA,
task-llso,arousal,cold_left,NA,1667928,complete,1,1875.28,1,1,1,active.png
task-llso,arousal,cold_left,NA,1667928,complete,1,1106.079,NA,0,1,active.png
task-llso,arousal,cold_left,NA,1667928,complete,2,700.41,1,1,1,passive.png
task-llso,arousal,cold_left,NA,1667928,complete,2,1103.674,NA,0,1,passive.png
task-llso,arousal,cold_left,NA,1667928,complete,3,532.3700001,1,1,1,passive.png
task-llso,arousal,cold_left,NA,1667928,complete,3,1103.28,NA,0,1,passive.png
task-llso,arousal,cold_left,NA,1667928,complete,4,568.7200001,1,1,1,passive.png
task-llso,arousal,cold_left,NA,1667928,complete,4,1103.333,NA,0,1,passive.png
task-llso,arousal,cold_left,NA,1667928,complete,5,523.88,1,1,1,active.png
task-llso,arousal,cold_left,NA,1667928,complete,5,1103.128,NA,0,1,active.png
task-llso,arousal,cold_left,NA,1667928,complete,6,448.0049999,1,1,1,active.png
task-llso,arousal,cold_left,NA,1667928,complete,6,1101.938,NA,0,1,active.png
task-llso,arousal,cold_left,NA,1667928,complete,2,2956.11,NA,0,NA,
task-llso,arousal,cold_left,NA,1667928,complete,2,709.732,NA,0,NA,
task-llso,arousal,cold_left,NA,1667928,complete,7,1572.74,1,1,2,cold.png
task-llso,arousal,cold_left,NA,1667928,complete,7,1105.244,NA,0,2,cold.png
task-llso,arousal,cold_left,NA,1667928,complete,8,417.1199999,1,1,2,hot.png
task-llso,arousal,cold_left,NA,1667928,complete,8,1102.843,NA,0,2,hot.png
task-llso,arousal,cold_left,NA,1667928,complete,9,448.9850001,1,1,2,cold.png
task-llso,arousal,cold_left,NA,1667928,complete,9,1103.057,NA,0,2,cold.png
task-llso,arousal,cold_left,NA,1667928,complete,10,407.935,1,1,2,hot.png
task-llso,arousal,cold_left,NA,1667928,complete,10,1102.89,NA,0,2,hot.png
task-llso,arousal,cold_left,NA,1667928,complete,11,374.4400002,1,1,2,cold.png
task-llso,arousal,cold_left,NA,1667928,complete,11,1102.716,NA,0,2,cold.png
task-llso,arousal,cold_left,NA,1667928,complete,12,389.3800001,1,1,2,hot.png
task-llso,arousal,cold_left,NA,1667928,complete,12,1103.127,NA,0,2,hot.png
task-llso,arousal,cold_left,NA,1667928,complete,3,8831.67,NA,0,NA,
task-llso,arousal,cold_left,NA,1667928,complete,3,709.866,NA,0,NA,
task-llso,arousal,cold_left,NA,1667928,complete,13,2164.465,1,1,6,cold.png
task-llso,arousal,cold_left,NA,1667928,complete,13,1106.89,NA,0,6,cold.png
task-llso,arousal,cold_left,NA,1667928,complete,14,1383.535,1,1,6,passive.png
task-llso,arousal,cold_left,NA,1667928,complete,14,1105.68,NA,0,6,passive.png
task-llso,arousal,cold_left,NA,1667928,complete,15,835.2000001,1,1,6,active.png
task-llso,arousal,cold_left,NA,1667928,complete,15,1104.183,NA,0,6,active.png
task-llso,arousal,cold_left,NA,1667928,complete,16,911.7099999,1,1,6,passive.png
task-llso,arousal,cold_left,NA,1667928,complete,16,1104.712,NA,0,6,passive.png
task-llso,arousal,cold_left,NA,1667928,complete,17,548.3650002,1,1,6,passive.png
task-llso,arousal,cold_left,NA,1667928,complete,17,1103.256,NA,0,6,passive.png
task-llso,arousal,cold_left,NA,1667928,complete,18,352.47,1,1,6,hot.png
task-llso,arousal,cold_left,NA,1667928,complete,18,1102.697,NA,0,6,hot.png
task-llso,arousal,cold_left,NA,1667928,complete,19,662.49,1,1,6,passive.png
task-llso,arousal,cold_left,NA,1667928,complete,19,1103.537,NA,0,6,passive.png
task-llso,arousal,cold_left,NA,1667928,complete,20,640.2350001,1,0,6,cold.png
task-llso,arousal,cold_left,NA,1667928,complete,20,1111.975,2,1,6,cold.png
task-llso,arousal,cold_left,NA,1667928,complete,20,1103.847,NA,0,6,cold.png
task-llso,arousal,cold_left,NA,1667928,complete,21,664.0599999,1,1,6,hot.png
task-llso,arousal,cold_left,NA,1667928,complete,21,1103.604,NA,0,6,hot.png
task-llso,arousal,cold_left,NA,1667928,complete,22,507.425,1,1,6,hot.png
task-llso,arousal,cold_left,NA,1667928,complete,22,1102.185,NA,0,6,hot.png
task-llso,arousal,cold_left,NA,1667928,complete,23,1073.505,1,1,6,active.png
task-llso,arousal,cold_left,NA,1667928,complete,23,1104.829,NA,0,6,active.png
task-llso,arousal,cold_left,NA,1667928,complete,24,707.2400001,1,1,6,hot.png
task-llso,arousal,cold_left,NA,1667928,complete,24,1103.767,NA,0,6,hot.png
task-llso,arousal,cold_left,NA,1667928,complete,25,984.5049998,1,1,6,passive.png
task-llso,arousal,cold_left,NA,1667928,complete,25,1104.574,NA,0,6,passive.png
task-llso,arousal,cold_left,NA,1667928,complete,26,650.72,1,1,6,passive.png
task-llso,arousal,cold_left,NA,1667928,complete,26,1103.566,NA,0,6,passive.png
task-llso,arousal,cold_left,NA,1667928,complete,27,490.0249999,1,1,6,passive.png
task-llso,arousal,cold_left,NA,1667928,complete,27,1102.129,NA,0,6,passive.png
task-llso,arousal,cold_left,NA,1667928,complete,28,823.48,1,1,6,active.png
task-llso,arousal,cold_left,NA,1667928,complete,28,1103.097,NA,0,6,active.png
task-llso,arousal,cold_left,NA,1667928,complete,29,560.3550002,1,1,6,cold.png
task-llso,arousal,cold_left,NA,1667928,complete,29,1103.364,NA,0,6,cold.png
task-llso,arousal,cold_left,NA,1667928,complete,30,430.4299999,1,1,6,cold.png
task-llso,arousal,cold_left,NA,1667928,complete,30,1101.994,NA,0,6,cold.png
task-llso,arousal,cold_left,NA,1667928,complete,31,609.0499999,1,0,6,active.png
task-llso,arousal,cold_left,NA,1667928,complete,31,1038.49,2,1,6,active.png
task-llso,arousal,cold_left,NA,1667928,complete,31,1103.66,NA,0,6,active.png
task-llso,arousal,cold_left,NA,1667928,complete,32,651.785,1,1,6,cold.png
task-llso,arousal,cold_left,NA,1667928,complete,32,1102.562,NA,0,6,cold.png
task-llso,arousal,cold_left,NA,1667928,complete,33,907.7099999,1,1,6,hot.png
task-llso,arousal,cold_left,NA,1667928,complete,33,1103.333,NA,0,6,hot.png
task-llso,arousal,cold_left,NA,1667928,complete,34,459.815,1,1,6,hot.png
task-llso,arousal,cold_left,NA,1667928,complete,34,1102.039,NA,0,6,hot.png
task-llso,arousal,cold_left,NA,1667928,complete,35,441.5200001,1,0,6,passive.png
task-llso,arousal,cold_left,NA,1667928,complete,35,1045.535,2,0,6,passive.png
task-llso,arousal,cold_left,NA,1667928,complete,35,1123.495,3,1,6,passive.png
task-llso,arousal,cold_left,NA,1667928,complete,35,1102.143,NA,0,6,passive.png
task-llso,arousal,cold_left,NA,1667928,complete,36,893.1900002,1,1,6,active.png
task-llso,arousal,cold_left,NA,1667928,complete,36,1104.29,NA,0,6,active.png
task-llso,arousal,cold_left,NA,1667928,complete,37,692.2900002,1,1,6,active.png
task-llso,arousal,cold_left,NA,1667928,complete,37,1103.846,NA,0,6,active.png
task-llso,arousal,cold_left,NA,1667928,complete,38,864.5599999,1,1,6,active.png
task-llso,arousal,cold_left,NA,1667928,complete,38,1104.111,NA,0,6,active.png
task-llso,arousal,cold_left,NA,1667928,complete,39,564.2550001,1,1,6,cold.png
task-llso,arousal,cold_left,NA,1667928,complete,39,1102.406,NA,0,6,cold.png
task-llso,arousal,cold_left,NA,1667928,complete,40,508.925,1,1,6,cold.png
task-llso,arousal,cold_left,NA,1667928,complete,40,1103.137,NA,0,6,cold.png
task-llso,arousal,cold_left,NA,1667928,complete,41,536.0299998,1,1,6,hot.png
task-llso,arousal,cold_left,NA,1667928,complete,41,1103.234,NA,0,6,hot.png
task-llso,arousal,cold_left,NA,1667928,complete,42,428.055,1,1,6,hot.png
task-llso,arousal,cold_left,NA,1667928,complete,42,1102.892,NA,0,6,hot.png
task-llso,arousal,cold_left,NA,1667928,complete,43,684.505,1,1,6,cold.png
task-llso,arousal,cold_left,NA,1667928,complete,43,1103.614,NA,0,6,cold.png
task-llso,arousal,cold_left,NA,1667928,complete,44,718.11,1,1,6,active.png
task-llso,arousal,cold_left,NA,1667928,complete,44,1103.714,NA,0,6,active.png
task-llso,arousal,cold_left,NA,1667928,complete,4,4740.77,NA,0,NA,
task-llso,arousal,cold_left,NA,1667928,complete,4,696.868,NA,0,NA,
task-llso,arousal,cold_left,NA,1667928,complete,45,910.5200002,1,1,7,hot.png
task-llso,arousal,cold_left,NA,1667928,complete,45,1103.794,NA,0,7,hot.png
task-llso,arousal,cold_left,NA,1667928,complete,46,373.8200001,1,1,7,active.png
task-llso,arousal,cold_left,NA,1667928,complete,46,1102.449,NA,0,7,active.png
task-llso,arousal,cold_left,NA,1667928,complete,47,375.735,1,1,7,hot.png
task-llso,arousal,cold_left,NA,1667928,complete,47,1102.722,NA,0,7,hot.png
task-llso,arousal,cold_left,NA,1667928,complete,48,871.12,1,1,7,passive.png
task-llso,arousal,cold_left,NA,1667928,complete,48,1104.151,NA,0,7,passive.png
task-llso,arousal,cold_left,NA,1667928,complete,49,391.8699999,1,1,7,passive.png
task-llso,arousal,cold_left,NA,1667928,complete,49,1102.85,NA,0,7,passive.png
task-llso,arousal,cold_left,NA,1667928,complete,50,401.14,1,1,7,passive.png
task-llso,arousal,cold_left,NA,1667928,complete,50,1102.862,NA,0,7,passive.png
task-llso,arousal,cold_left,NA,1667928,complete,51,430.5400001,1,1,7,cold.png
task-llso,arousal,cold_left,NA,1667928,complete,51,1102.989,NA,0,7,cold.png
task-llso,arousal,cold_left,NA,1667928,complete,52,555.1749999,1,1,7,active.png
task-llso,arousal,cold_left,NA,1667928,complete,52,1103.233,NA,0,7,active.png
task-llso,arousal,cold_left,NA,1667928,complete,53,415.605,1,0,7,passive.png
task-llso,arousal,cold_left,NA,1667928,complete,53,683.8999998,2,1,7,passive.png
task-llso,arousal,cold_left,NA,1667928,complete,53,1102.632,NA,0,7,passive.png
task-llso,arousal,cold_left,NA,1667928,complete,54,955.8250001,1,1,7,cold.png
task-llso,arousal,cold_left,NA,1667928,complete,54,1104.356,NA,0,7,cold.png
task-llso,arousal,cold_left,NA,1667928,complete,55,496.2200001,1,1,7,cold.png
task-llso,arousal,cold_left,NA,1667928,complete,55,1103.092,NA,0,7,cold.png
task-llso,arousal,cold_left,NA,1667928,complete,56,531.5050001,1,1,7,hot.png
task-llso,arousal,cold_left,NA,1667928,complete,56,1103.176,NA,0,7,hot.png
task-llso,arousal,cold_left,NA,1667928,complete,57,673.5449999,1,1,7,passive.png
task-llso,arousal,cold_left,NA,1667928,complete,57,1103.686,NA,0,7,passive.png
task-llso,arousal,cold_left,NA,1667928,complete,58,520.115,1,1,7,passive.png
task-llso,arousal,cold_left,NA,1667928,complete,58,1103.135,NA,0,7,passive.png
task-llso,arousal,cold_left,NA,1667928,complete,59,368.795,1,1,7,passive.png
task-llso,arousal,cold_left,NA,1667928,complete,59,1102.708,NA,0,7,passive.png
task-llso,arousal,cold_left,NA,1667928,complete,60,626.6099999,1,1,7,active.png
task-llso,arousal,cold_left,NA,1667928,complete,60,1103.513,NA,0,7,active.png
task-llso,arousal,cold_left,NA,1667928,complete,61,612.07,1,1,7,cold.png
task-llso,arousal,cold_left,NA,1667928,complete,61,1103.412,NA,0,7,cold.png
task-llso,arousal,cold_left,NA,1667928,complete,62,970.61,1,1,7,active.png
task-llso,arousal,cold_left,NA,1667928,complete,62,1104.429,NA,0,7,active.png
task-llso,arousal,cold_left,NA,1667928,complete,63,545.5,1,1,7,hot.png
task-llso,arousal,cold_left,NA,1667928,complete,63,1103.241,NA,0,7,hot.png
task-llso,arousal,cold_left,NA,1667928,complete,64,436.76,1,1,7,cold.png
task-llso,arousal,cold_left,NA,1667928,complete,64,1103.033,NA,0,7,cold.png
task-llso,arousal,cold_left,NA,1667928,complete,65,787.335,1,1,7,active.png
task-llso,arousal,cold_left,NA,1667928,complete,65,1104.277,NA,0,7,active.png
task-llso,arousal,cold_left,NA,1667928,complete,66,471.29,1,1,7,hot.png
task-llso,arousal,cold_left,NA,1667928,complete,66,1102.991,NA,0,7,hot.png
task-llso,arousal,cold_left,NA,1667928,complete,67,427.5250002,1,1,7,hot.png
task-llso,arousal,cold_left,NA,1667928,complete,67,1102.888,NA,0,7,hot.png
task-llso,arousal,cold_left,NA,1667928,complete,68,364.605,1,1,7,hot.png
task-llso,arousal,cold_left,NA,1667928,complete,68,1102.702,NA,0,7,hot.png
task-llso,arousal,cold_left,NA,1667928,complete,69,399.8349998,1,1,7,active.png
task-llso,arousal,cold_left,NA,1667928,complete,69,1102.795,NA,0,7,active.png
task-llso,arousal,cold_left,NA,1667928,complete,70,755.8000002,1,1,7,active.png
task-llso,arousal,cold_left,NA,1667928,complete,70,1102.863,NA,0,7,active.png
task-llso,arousal,cold_left,NA,1667928,complete,71,445.4299998,1,0,7,passive.png
task-llso,arousal,cold_left,NA,1667928,complete,71,699.27,2,1,7,passive.png
task-llso,arousal,cold_left,NA,1667928,complete,71,1102.664,NA,0,7,passive.png
task-llso,arousal,cold_left,NA,1667928,complete,72,696.8499999,1,1,7,cold.png
task-llso,arousal,cold_left,NA,1667928,complete,72,1103.452,NA,0,7,cold.png
task-llso,arousal,cold_left,NA,1667928,complete,73,811.0799999,1,1,7,passive.png
task-llso,arousal,cold_left,NA,1667928,complete,73,1103.986,NA,0,7,passive.png
task-llso,arousal,cold_left,NA,1667928,complete,74,583.3150002,1,1,7,hot.png
task-llso,arousal,cold_left,NA,1667928,complete,74,1103.367,NA,0,7,hot.png
task-llso,arousal,cold_left,NA,1667928,complete,75,584.3,1,1,7,active.png
task-llso,arousal,cold_left,NA,1667928,complete,75,1103.428,NA,0,7,active.png
task-llso,arousal,cold_left,NA,1667928,complete,76,584.3799999,1,1,7,hot.png
task-llso,arousal,cold_left,NA,1667928,complete,76,1103.429,NA,0,7,hot.png
task-llso,arousal,cold_left,NA,1667928,complete,77,913.7899999,1,1,7,active.png
task-llso,arousal,cold_left,NA,1667928,complete,77,1104.282,NA,0,7,active.png
task-llso,arousal,cold_left,NA,1667928,complete,78,407.3400002,1,1,7,active.png
task-llso,arousal,cold_left,NA,1667928,complete,78,1102.844,NA,0,7,active.png
task-llso,arousal,cold_left,NA,1667928,complete,79,470.925,1,1,7,hot.png
task-llso,arousal,cold_left,NA,1667928,complete,79,1103.143,NA,0,7,hot.png
task-llso,arousal,cold_left,NA,1667928,complete,80,380.9499999,1,1,7,hot.png
task-llso,arousal,cold_left,NA,1667928,complete,80,1103.918,NA,0,7,hot.png
task-llso,arousal,cold_left,NA,1667928,complete,81,599.345,1,0,7,passive.png
task-llso,arousal,cold_left,NA,1667928,complete,81,1132.93,2,1,7,passive.png
task-llso,arousal,cold_left,NA,1667928,complete,81,1102.033,NA,0,7,passive.png
task-llso,arousal,cold_left,NA,1667928,complete,82,497.7199999,1,1,7,cold.png
task-llso,arousal,cold_left,NA,1667928,complete,82,1103.211,NA,0,7,cold.png
task-llso,arousal,cold_left,NA,1667928,complete,83,435.9300002,1,0,7,active.png
task-llso,arousal,cold_left,NA,1667928,complete,83,711.2350001,2,1,7,active.png
task-llso,arousal,cold_left,NA,1667928,complete,83,1102.701,NA,0,7,active.png
task-llso,arousal,cold_left,NA,1667928,complete,84,823.725,1,1,7,cold.png
task-llso,arousal,cold_left,NA,1667928,complete,84,1104.1,NA,0,7,cold.png
task-llso,arousal,cold_left,NA,1667928,complete,85,580.325,1,1,7,active.png
task-llso,arousal,cold_left,NA,1667928,complete,85,1103.295,NA,0,7,active.png
task-llso,arousal,cold_left,NA,1667928,complete,86,1141.845,1,1,7,passive.png
task-llso,arousal,cold_left,NA,1667928,complete,86,1104.964,NA,0,7,passive.png
task-llso,arousal,cold_left,NA,1667928,complete,87,693.0750001,1,1,7,hot.png
task-llso,arousal,cold_left,NA,1667928,complete,87,1102.713,NA,0,7,hot.png
task-llso,arousal,cold_left,NA,1667928,complete,88,486.3199999,1,1,7,cold.png
task-llso,arousal,cold_left,NA,1667928,complete,88,1103.042,NA,0,7,cold.png
task-llso,arousal,cold_left,NA,1667928,complete,89,380.8149998,1,1,7,cold.png
task-llso,arousal,cold_left,NA,1667928,complete,89,1102.806,NA,0,7,cold.png
task-llso,arousal,cold_left,NA,1667928,complete,90,405.2650002,1,1,7,cold.png
task-llso,arousal,cold_left,NA,1667928,complete,90,1102.883,NA,0,7,cold.png
task-llso,arousal,cold_left,NA,1667928,complete,91,385.6549999,1,1,7,cold.png
task-llso,arousal,cold_left,NA,1667928,complete,91,1102.747,NA,0,7,cold.png
task-llso,arousal,cold_left,NA,1667928,complete,92,1001.905,1,1,7,passive.png
task-llso,arousal,cold_left,NA,1667928,complete,92,1104.52,NA,0,7,passive.png
task-llso,arousal,cold_left,NA,1667928,complete,5,3073.585,NA,0,NA,
task-llso,arousal,cold_left,NA,1667928,complete,5,692.055,NA,0,NA,
task-llso,arousal,cold_left,NA,1667928,complete,93,970.465,1,1,5,passive.png
task-llso,arousal,cold_left,NA,1667928,complete,93,1103.757,NA,0,5,passive.png
task-llso,arousal,cold_left,NA,1667928,complete,94,520.8100001,1,1,5,passive.png
task-llso,arousal,cold_left,NA,1667928,complete,94,1103.095,NA,0,5,passive.png
task-llso,arousal,cold_left,NA,1667928,complete,95,368.4,1,1,5,active.png
task-llso,arousal,cold_left,NA,1667928,complete,95,1102.809,NA,0,5,active.png
task-llso,arousal,cold_left,NA,1667928,complete,96,331.0550002,1,1,5,active.png
task-llso,arousal,cold_left,NA,1667928,complete,96,1102.58,NA,0,5,active.png
task-llso,arousal,cold_left,NA,1667928,complete,97,405.4350001,1,1,5,active.png
task-llso,arousal,cold_left,NA,1667928,complete,97,1102.756,NA,0,5,active.png
task-llso,arousal,cold_left,NA,1667928,complete,98,449.91,1,1,5,passive.png
task-llso,arousal,cold_left,NA,1667928,complete,98,1102.843,NA,0,5,passive.png
task-llso,arousal,cold_left,NA,1667928,complete,6,2433.735,NA,0,NA,
task-llso,arousal,cold_left,NA,1667928,complete,6,706.914,NA,0,NA,
task-llso,arousal,cold_left,NA,1667928,complete,99,1207.52,1,1,3,active.png
task-llso,arousal,cold_left,NA,1667928,complete,99,1104.167,NA,0,3,active.png
task-llso,arousal,cold_left,NA,1667928,complete,100,565.43,1,1,3,passive.png
task-llso,arousal,cold_left,NA,1667928,complete,100,1103.224,NA,0,3,passive.png
task-llso,arousal,cold_left,NA,1667928,complete,101,881.9849999,1,1,3,cold.png
task-llso,arousal,cold_left,NA,1667928,complete,101,1104.276,NA,0,3,cold.png
task-llso,arousal,cold_left,NA,1667928,complete,102,486.6000002,1,1,3,hot.png
task-llso,arousal,cold_left,NA,1667928,complete,102,1103.029,NA,0,3,hot.png
task-llso,arousal,cold_left,NA,1667928,complete,103,394.84,1,1,3,passive.png
task-llso,arousal,cold_left,NA,1667928,complete,103,1102.891,NA,0,3,passive.png
task-llso,arousal,cold_left,NA,1667928,complete,104,401.3650001,1,1,3,passive.png
task-llso,arousal,cold_left,NA,1667928,complete,104,1102.803,NA,0,3,passive.png
task-llso,arousal,cold_left,NA,1667928,complete,105,460.9899998,1,1,3,hot.png
task-llso,arousal,cold_left,NA,1667928,complete,105,1102.965,NA,0,3,hot.png
task-llso,arousal,cold_left,NA,1667928,complete,106,1122.44,1,1,3,passive.png
task-llso,arousal,cold_left,NA,1667928,complete,106,1104.917,NA,0,3,passive.png
task-llso,arousal,cold_left,NA,1667928,complete,107,414.05,1,1,3,hot.png
task-llso,arousal,cold_left,NA,1667928,complete,107,1102.844,NA,0,3,hot.png
task-llso,arousal,cold_left,NA,1667928,complete,108,948.4900001,1,1,3,active.png
task-llso,arousal,cold_left,NA,1667928,complete,108,1104.4,NA,0,3,active.png
task-llso,arousal,cold_left,NA,1667928,complete,109,979.88,1,1,3,cold.png
task-llso,arousal,cold_left,NA,1667928,complete,109,1104.459,NA,0,3,cold.png
task-llso,arousal,cold_left,NA,1667928,complete,110,454.35,1,1,3,cold.png
task-llso,arousal,cold_left,NA,1667928,complete,110,1102.961,NA,0,3,cold.png
task-llso,arousal,cold_left,NA,1667928,complete,111,988.445,1,1,3,active.png
task-llso,arousal,cold_left,NA,1667928,complete,111,1104.369,NA,0,3,active.png
task-llso,arousal,cold_left,NA,1667928,complete,112,485.8500001,1,1,3,active.png
task-llso,arousal,cold_left,NA,1667928,complete,112,1103,NA,0,3,active.png
task-llso,arousal,cold_left,NA,1667928,complete,113,783.235,1,1,3,cold.png
task-llso,arousal,cold_left,NA,1667928,complete,113,1103.949,NA,0,3,cold.png
task-llso,arousal,cold_left,NA,1667928,complete,114,560.54,1,1,3,hot.png
task-llso,arousal,cold_left,NA,1667928,complete,114,1104.005,NA,0,3,hot.png
task-llso,arousal,cold_left,NA,1667928,complete,7,1773.32,NA,0,NA,
task-llso,arousal,cold_left,NA,1667928,complete,7,706.211,NA,0,NA,
task-llso,arousal,cold_left,NA,1667928,complete,115,807.6549999,1,1,4,active.png
task-llso,arousal,cold_left,NA,1667928,complete,115,1103.13,NA,0,4,active.png
task-llso,arousal,cold_left,NA,1667928,complete,116,470.5449999,1,1,4,passive.png
task-llso,arousal,cold_left,NA,1667928,complete,116,1102.981,NA,0,4,passive.png
task-llso,arousal,cold_left,NA,1667928,complete,117,382.4149999,1,0,4,active.png
task-llso,arousal,cold_left,NA,1667928,complete,117,468.5199999,2,1,4,active.png
task-llso,arousal,cold_left,NA,1667928,complete,117,1102.764,NA,0,4,active.png
task-llso,arousal,cold_left,NA,1667928,complete,118,523.61,1,1,4,passive.png
task-llso,arousal,cold_left,NA,1667928,complete,118,1103.138,NA,0,4,passive.png
task-llso,arousal,cold_left,NA,1667928,complete,119,454.7850001,1,1,4,active.png
task-llso,arousal,cold_left,NA,1667928,complete,119,1102.931,NA,0,4,active.png
task-llso,arousal,cold_left,NA,1667928,complete,120,478.415,1,1,4,active.png
task-llso,arousal,cold_left,NA,1667928,complete,120,1103.033,NA,0,4,active.png
task-llso,arousal,cold_left,NA,1667928,complete,121,416.775,1,1,4,cold.png
task-llso,arousal,cold_left,NA,1667928,complete,121,1102.853,NA,0,4,cold.png
task-llso,arousal,cold_left,NA,1667928,complete,122,692.0449999,1,1,4,hot.png
task-llso,arousal,cold_left,NA,1667928,complete,122,1102.722,NA,0,4,hot.png
task-llso,arousal,cold_left,NA,1667928,complete,123,543.445,1,1,4,cold.png
task-llso,arousal,cold_left,NA,1667928,complete,123,1103.168,NA,0,4,cold.png
task-llso,arousal,cold_left,NA,1667928,complete,124,510.3450001,1,1,4,active.png
task-llso,arousal,cold_left,NA,1667928,complete,124,1102.177,NA,0,4,active.png
task-llso,arousal,cold_left,NA,1667928,complete,125,556.635,1,1,4,cold.png
task-llso,arousal,cold_left,NA,1667928,complete,125,1103.14,NA,0,4,cold.png
task-llso,arousal,cold_left,NA,1667928,complete,126,777.675,1,1,4,passive.png
task-llso,arousal,cold_left,NA,1667928,complete,126,1103.909,NA,0,4,passive.png
task-llso,arousal,cold_left,NA,1667928,complete,127,519.3099999,1,1,4,passive.png
task-llso,arousal,cold_left,NA,1667928,complete,127,1103.119,NA,0,4,passive.png
task-llso,arousal,cold_left,NA,1667928,complete,128,879.4799999,1,1,4,active.png
task-llso,arousal,cold_left,NA,1667928,complete,128,1104.089,NA,0,4,active.png
task-llso,arousal,cold_left,NA,1667928,complete,129,603.8849999,1,1,4,passive.png
task-llso,arousal,cold_left,NA,1667928,complete,129,1103.371,NA,0,4,passive.png
task-llso,arousal,cold_left,NA,1667928,complete,130,380.59,1,1,4,active.png
task-llso,arousal,cold_left,NA,1667928,complete,130,1102.758,NA,0,4,active.png
task-llso,arousal,cold_left,NA,1667928,complete,131,541.8749999,1,1,4,cold.png
task-llso,arousal,cold_left,NA,1667928,complete,131,1103.171,NA,0,4,cold.png
task-llso,arousal,cold_left,NA,1667928,complete,132,386.6949999,1,1,4,hot.png
task-llso,arousal,cold_left,NA,1667928,complete,132,1101.832,NA,0,4,hot.png
task-llso,arousal,cold_left,NA,1667928,complete,133,469.8150002,1,1,4,cold.png
task-llso,arousal,cold_left,NA,1667928,complete,133,1103.029,NA,0,4,cold.png
task-llso,arousal,cold_left,NA,1667928,complete,134,537.185,1,1,4,cold.png
task-llso,arousal,cold_left,NA,1667928,complete,134,1104.535,NA,0,4,cold.png
task-llso,arousal,cold_left,NA,1667928,complete,135,744.65,1,1,4,passive.png
task-llso,arousal,cold_left,NA,1667928,complete,135,1103.722,NA,0,4,passive.png
task-llso,arousal,cold_left,NA,1667928,complete,136,773.235,1,1,4,hot.png
task-llso,arousal,cold_left,NA,1667928,complete,136,1104.293,NA,0,4,hot.png
task-llso,arousal,cold_left,NA,1667928,complete,137,451.2999998,1,1,4,hot.png
task-llso,arousal,cold_left,NA,1667928,complete,137,1102.935,NA,0,4,hot.png
task-llso,arousal,cold_left,NA,1667928,complete,138,455.0650001,1,1,4,cold.png
task-llso,arousal,cold_left,NA,1667928,complete,138,1102.89,NA,0,4,cold.png
task-llso,arousal,cold_left,NA,1667928,complete,139,637.2649998,1,1,4,passive.png
task-llso,arousal,cold_left,NA,1667928,complete,139,1103.469,NA,0,4,passive.png
task-llso,arousal,cold_left,NA,1667928,complete,140,591.245,1,1,4,cold.png
task-llso,arousal,cold_left,NA,1667928,complete,140,1103.264,NA,0,4,cold.png
task-llso,arousal,cold_left,NA,1667928,complete,141,340.7399999,1,1,4,hot.png
task-llso,arousal,cold_left,NA,1667928,complete,141,1102.604,NA,0,4,hot.png
task-llso,arousal,cold_left,NA,1667928,complete,142,332.4699998,1,1,4,hot.png
task-llso,arousal,cold_left,NA,1667928,complete,142,1102.706,NA,0,4,hot.png
task-llso,arousal,cold_left,NA,1667928,complete,143,306.4700002,1,1,4,hot.png
task-llso,arousal,cold_left,NA,1667928,complete,143,1102.511,NA,0,4,hot.png
task-llso,arousal,cold_left,NA,1667928,complete,144,324.4350001,1,1,4,hot.png
task-llso,arousal,cold_left,NA,1667928,complete,144,1102.561,NA,0,4,hot.png
task-llso,arousal,cold_left,NA,1667928,complete,145,375.495,1,0,4,passive.png
task-llso,arousal,cold_left,NA,1667928,complete,145,708.93,2,1,4,passive.png
task-llso,arousal,cold_left,NA,1667928,complete,145,1101.458,NA,0,4,passive.png
task-llso,arousal,cold_left,NA,1667928,complete,146,791.4149999,1,1,4,passive.png
task-llso,arousal,cold_left,NA,1667928,complete,146,1103.794,NA,0,4,passive.png
task-llso,arousal,cold_left,NA,1667928,complete,147,415.1049999,1,1,4,passive.png
task-llso,arousal,cold_left,NA,1667928,complete,147,1102.759,NA,0,4,passive.png
task-llso,arousal,cold_left,NA,1667928,complete,148,538.1100001,1,1,4,hot.png
task-llso,arousal,cold_left,NA,1667928,complete,148,1103.11,NA,0,4,hot.png
task-llso,arousal,cold_left,NA,1667928,complete,149,726.0500002,1,1,4,active.png
task-llso,arousal,cold_left,NA,1667928,complete,149,1102.872,NA,0,4,active.png
task-llso,arousal,cold_left,NA,1667928,complete,150,510.3199999,1,1,4,passive.png
task-llso,arousal,cold_left,NA,1667928,complete,150,1103.136,NA,0,4,passive.png
task-llso,arousal,cold_left,NA,1667928,complete,151,592.185,1,1,4,cold.png
task-llso,arousal,cold_left,NA,1667928,complete,151,1103.32,NA,0,4,cold.png
task-llso,arousal,cold_left,NA,1667928,complete,152,545.1049998,1,1,4,active.png
task-llso,arousal,cold_left,NA,1667928,complete,152,1103.934,NA,0,4,active.png
task-llso,arousal,cold_left,NA,1667928,complete,153,490.64,1,1,4,cold.png
task-llso,arousal,cold_left,NA,1667928,complete,153,1103.056,NA,0,4,cold.png
task-llso,arousal,cold_left,NA,1667928,complete,154,496.2150001,1,1,4,hot.png
task-llso,arousal,cold_left,NA,1667928,complete,154,1103.011,NA,0,4,hot.png
task-llso,arousal,cold_left,NA,1667928,complete,155,544.28,1,0,4,active.png
task-llso,arousal,cold_left,NA,1667928,complete,155,955.2,2,1,4,active.png
task-llso,arousal,cold_left,NA,1667928,complete,155,1101.84,NA,0,4,active.png
task-llso,arousal,cold_left,NA,1667928,complete,156,723.2299999,1,1,4,cold.png
task-llso,arousal,cold_left,NA,1667928,complete,156,1103.638,NA,0,4,cold.png
task-llso,arousal,cold_left,NA,1667928,complete,157,500.3850001,1,1,4,hot.png
task-llso,arousal,cold_left,NA,1667928,complete,157,1103.079,NA,0,4,hot.png
task-llso,arousal,cold_left,NA,1667928,complete,158,463.405,1,1,4,cold.png
task-llso,arousal,cold_left,NA,1667928,complete,158,1102.032,NA,0,4,cold.png
task-llso,arousal,cold_left,NA,1667928,complete,159,975.38,1,1,4,active.png
task-llso,arousal,cold_left,NA,1667928,complete,159,1103.531,NA,0,4,active.png
task-llso,arousal,cold_left,NA,1667928,complete,160,442.8300001,1,1,4,active.png
task-llso,arousal,cold_left,NA,1667928,complete,160,1102.888,NA,0,4,active.png
task-llso,arousal,cold_left,NA,1667928,complete,161,751.83,1,0,4,hot.png
task-llso,arousal,cold_left,NA,1667928,complete,161,1092.75,2,1,4,hot.png
task-llso,arousal,cold_left,NA,1667928,complete,161,1103.811,NA,0,4,hot.png
task-llso,arousal,cold_left,NA,1667928,complete,162,781.275,1,1,4,passive.png
task-llso,arousal,cold_left,NA,1667928,complete,162,1103.833,NA,0,4,passive.png
task-llso,arousal,cold_left,NA,1667928,complete,END TASK,327474,NA,0,NA,
task-llso,arousal,cold_left,NA,1667959,complete,BEGIN TASK,,NA,0,NA,
task-llso,arousal,cold_left,NA,1667959,complete,1,5659.98,NA,0,NA,
task-llso,arousal,cold_left,NA,1667959,complete,1,700.696,NA,0,NA,
task-llso,arousal,cold_left,NA,1667959,complete,1,1525.35,1,1,1,active.png
task-llso,arousal,cold_left,NA,1667959,complete,1,1101.144,NA,0,1,active.png
task-llso,arousal,cold_left,NA,1667959,complete,2,422.015,1,1,1,passive.png
task-llso,arousal,cold_left,NA,1667959,complete,2,1101.122,NA,0,1,passive.png
task-llso,arousal,cold_left,NA,1667959,complete,3,344.31,1,1,1,active.png
task-llso,arousal,cold_left,NA,1667959,complete,3,1101.191,NA,0,1,active.png
task-llso,arousal,cold_left,NA,1667959,complete,4,289.105,1,0,1,passive.png
task-llso,arousal,cold_left,NA,1667959,complete,4,912.12,2,1,1,passive.png
task-llso,arousal,cold_left,NA,1667959,complete,4,1101.202,NA,0,1,passive.png
task-llso,arousal,cold_left,NA,1667959,complete,5,458.335,1,1,1,active.png
task-llso,arousal,cold_left,NA,1667959,complete,5,1101.205,NA,0,1,active.png
task-llso,arousal,cold_left,NA,1667959,complete,6,574.03,1,1,1,passive.png
task-llso,arousal,cold_left,NA,1667959,complete,6,1101.165,NA,0,1,passive.png
task-llso,arousal,cold_left,NA,1667959,complete,2,2902.455,NA,0,NA,
task-llso,arousal,cold_left,NA,1667959,complete,2,700.67,NA,0,NA,
task-llso,arousal,cold_left,NA,1667959,complete,7,494.175,1,1,2,cold.png
task-llso,arousal,cold_left,NA,1667959,complete,7,1101.078,NA,0,2,cold.png
task-llso,arousal,cold_left,NA,1667959,complete,8,365.27,1,1,2,hot.png
task-llso,arousal,cold_left,NA,1667959,complete,8,1101.158,NA,0,2,hot.png
task-llso,arousal,cold_left,NA,1667959,complete,9,369.215,1,1,2,hot.png
task-llso,arousal,cold_left,NA,1667959,complete,9,1101.144,NA,0,2,hot.png
task-llso,arousal,cold_left,NA,1667959,complete,10,450.01,1,1,2,cold.png
task-llso,arousal,cold_left,NA,1667959,complete,10,1101.139,NA,0,2,cold.png
task-llso,arousal,cold_left,NA,1667959,complete,11,574.27,1,1,2,hot.png
task-llso,arousal,cold_left,NA,1667959,complete,11,1101.166,NA,0,2,hot.png
task-llso,arousal,cold_left,NA,1667959,complete,12,392.845,1,1,2,cold.png
task-llso,arousal,cold_left,NA,1667959,complete,12,1101.273,NA,0,2,cold.png
task-llso,arousal,cold_left,NA,1667959,complete,3,4787.935,NA,0,NA,
task-llso,arousal,cold_left,NA,1667959,complete,3,700.743,NA,0,NA,
task-llso,arousal,cold_left,NA,1667959,complete,13,508.55,1,1,3,hot.png
task-llso,arousal,cold_left,NA,1667959,complete,13,1101.161,NA,0,3,hot.png
task-llso,arousal,cold_left,NA,1667959,complete,14,392.7,1,0,3,passive.png
task-llso,arousal,cold_left,NA,1667959,complete,14,969.75,2,1,3,passive.png
task-llso,arousal,cold_left,NA,1667959,complete,14,1101.156,NA,0,3,passive.png
task-llso,arousal,cold_left,NA,1667959,complete,15,605.275,1,1,3,hot.png
task-llso,arousal,cold_left,NA,1667959,complete,15,1101.172,NA,0,3,hot.png
task-llso,arousal,cold_left,NA,1667959,complete,16,442.25,1,1,3,cold.png
task-llso,arousal,cold_left,NA,1667959,complete,16,1101.197,NA,0,3,cold.png
task-llso,arousal,cold_left,NA,1667959,complete,17,593.71,1,1,3,active.png
task-llso,arousal,cold_left,NA,1667959,complete,17,1101.204,NA,0,3,active.png
task-llso,arousal,cold_left,NA,1667959,complete,18,495.51,1,1,3,hot.png
task-llso,arousal,cold_left,NA,1667959,complete,18,1101.161,NA,0,3,hot.png
task-llso,arousal,cold_left,NA,1667959,complete,19,565.13,1,0,3,active.png
task-llso,arousal,cold_left,NA,1667959,complete,19,903.62,2,1,3,active.png
task-llso,arousal,cold_left,NA,1667959,complete,19,1101.146,NA,0,3,active.png
task-llso,arousal,cold_left,NA,1667959,complete,20,754.295,1,1,3,passive.png
task-llso,arousal,cold_left,NA,1667959,complete,20,1101.156,NA,0,3,passive.png
task-llso,arousal,cold_left,NA,1667959,complete,21,531.445,1,1,3,active.png
task-llso,arousal,cold_left,NA,1667959,complete,21,1101.184,NA,0,3,active.png
task-llso,arousal,cold_left,NA,1667959,complete,22,410.845,1,1,3,cold.png
task-llso,arousal,cold_left,NA,1667959,complete,22,1101.125,NA,0,3,cold.png
task-llso,arousal,cold_left,NA,1667959,complete,23,446.255,1,1,3,cold.png
task-llso,arousal,cold_left,NA,1667959,complete,23,1101.174,NA,0,3,cold.png
task-llso,arousal,cold_left,NA,1667959,complete,24,407.95,1,1,3,hot.png
task-llso,arousal,cold_left,NA,1667959,complete,24,1101.179,NA,0,3,hot.png
task-llso,arousal,cold_left,NA,1667959,complete,25,403.9,1,1,3,active.png
task-llso,arousal,cold_left,NA,1667959,complete,25,1101.243,NA,0,3,active.png
task-llso,arousal,cold_left,NA,1667959,complete,26,1079.43,1,1,3,passive.png
task-llso,arousal,cold_left,NA,1667959,complete,26,1101.164,NA,0,3,passive.png
task-llso,arousal,cold_left,NA,1667959,complete,27,473.46,1,0,3,passive.png
task-llso,arousal,cold_left,NA,1667959,complete,27,786.36,2,1,3,passive.png
task-llso,arousal,cold_left,NA,1667959,complete,27,1101.166,NA,0,3,passive.png
task-llso,arousal,cold_left,NA,1667959,complete,28,572.33,1,1,3,cold.png
task-llso,arousal,cold_left,NA,1667959,complete,28,1101.084,NA,0,3,cold.png
task-llso,arousal,cold_left,NA,1667959,complete,4,5064.875,NA,0,NA,
task-llso,arousal,cold_left,NA,1667959,complete,4,700.726,NA,0,NA,
task-llso,arousal,cold_left,NA,1667959,complete,29,585.05,1,1,4,cold.png
task-llso,arousal,cold_left,NA,1667959,complete,29,1101.22,NA,0,4,cold.png
task-llso,arousal,cold_left,NA,1667959,complete,30,432.75,1,0,4,passive.png
task-llso,arousal,cold_left,NA,1667959,complete,30,665.995,2,1,4,passive.png
task-llso,arousal,cold_left,NA,1667959,complete,30,1101.18,NA,0,4,passive.png
task-llso,arousal,cold_left,NA,1667959,complete,31,374.55,1,1,4,cold.png
task-llso,arousal,cold_left,NA,1667959,complete,31,1101.116,NA,0,4,cold.png
task-llso,arousal,cold_left,NA,1667959,complete,32,473.705,1,1,4,hot.png
task-llso,arousal,cold_left,NA,1667959,complete,32,1101.182,NA,0,4,hot.png
task-llso,arousal,cold_left,NA,1667959,complete,33,431.45,1,1,4,cold.png
task-llso,arousal,cold_left,NA,1667959,complete,33,1101.273,NA,0,4,cold.png
task-llso,arousal,cold_left,NA,1667959,complete,34,374.115,1,1,4,active.png
task-llso,arousal,cold_left,NA,1667959,complete,34,1101.175,NA,0,4,active.png
task-llso,arousal,cold_left,NA,1667959,complete,35,679.47,1,1,4,passive.png
task-llso,arousal,cold_left,NA,1667959,complete,35,1101.165,NA,0,4,passive.png
task-llso,arousal,cold_left,NA,1667959,complete,36,544.64,1,1,4,passive.png
task-llso,arousal,cold_left,NA,1667959,complete,36,1101.18,NA,0,4,passive.png
task-llso,arousal,cold_left,NA,1667959,complete,37,459.225,1,1,4,passive.png
task-llso,arousal,cold_left,NA,1667959,complete,37,1101.163,NA,0,4,passive.png
task-llso,arousal,cold_left,NA,1667959,complete,38,455.145,1,1,4,cold.png
task-llso,arousal,cold_left,NA,1667959,complete,38,1101.099,NA,0,4,cold.png
task-llso,arousal,cold_left,NA,1667959,complete,39,783.45,1,1,4,active.png
task-llso,arousal,cold_left,NA,1667959,complete,39,1101.167,NA,0,4,active.png
task-llso,arousal,cold_left,NA,1667959,complete,40,671.81,1,1,4,active.png
task-llso,arousal,cold_left,NA,1667959,complete,40,1101.254,NA,0,4,active.png
task-llso,arousal,cold_left,NA,1667959,complete,41,529.74,1,1,4,passive.png
task-llso,arousal,cold_left,NA,1667959,complete,41,1101.194,NA,0,4,passive.png
task-llso,arousal,cold_left,NA,1667959,complete,42,500.56,1,1,4,cold.png
task-llso,arousal,cold_left,NA,1667959,complete,42,1101.207,NA,0,4,cold.png
task-llso,arousal,cold_left,NA,1667959,complete,43,433.63,1,1,4,hot.png
task-llso,arousal,cold_left,NA,1667959,complete,43,1101.172,NA,0,4,hot.png
task-llso,arousal,cold_left,NA,1667959,complete,44,531.395,1,1,4,passive.png
task-llso,arousal,cold_left,NA,1667959,complete,44,1101.174,NA,0,4,passive.png
task-llso,arousal,cold_left,NA,1667959,complete,45,507.315,1,1,4,hot.png
task-llso,arousal,cold_left,NA,1667959,complete,45,1101.236,NA,0,4,hot.png
task-llso,arousal,cold_left,NA,1667959,complete,46,523.58,1,1,4,hot.png
task-llso,arousal,cold_left,NA,1667959,complete,46,1101.146,NA,0,4,hot.png
task-llso,arousal,cold_left,NA,1667959,complete,47,382.6,1,1,4,hot.png
task-llso,arousal,cold_left,NA,1667959,complete,47,1101.22,NA,0,4,hot.png
task-llso,arousal,cold_left,NA,1667959,complete,48,363.6,1,1,4,cold.png
task-llso,arousal,cold_left,NA,1667959,complete,48,1101.164,NA,0,4,cold.png
task-llso,arousal,cold_left,NA,1667959,complete,49,456.065,1,0,4,active.png
task-llso,arousal,cold_left,NA,1667959,complete,49,618.42,2,1,4,active.png
task-llso,arousal,cold_left,NA,1667959,complete,49,1101.159,NA,0,4,active.png
task-llso,arousal,cold_left,NA,1667959,complete,50,609.085,1,1,4,active.png
task-llso,arousal,cold_left,NA,1667959,complete,50,1101.142,NA,0,4,active.png
task-llso,arousal,cold_left,NA,1667959,complete,51,619.225,1,1,4,cold.png
task-llso,arousal,cold_left,NA,1667959,complete,51,1101.085,NA,0,4,cold.png
task-llso,arousal,cold_left,NA,1667959,complete,52,488.285,1,1,4,hot.png
task-llso,arousal,cold_left,NA,1667959,complete,52,1101.125,NA,0,4,hot.png
task-llso,arousal,cold_left,NA,1667959,complete,53,849.52,1,1,4,active.png
task-llso,arousal,cold_left,NA,1667959,complete,53,1101.2,NA,0,4,active.png
task-llso,arousal,cold_left,NA,1667959,complete,54,579.7,1,1,4,hot.png
task-llso,arousal,cold_left,NA,1667959,complete,54,1101.144,NA,0,4,hot.png
task-llso,arousal,cold_left,NA,1667959,complete,55,371.05,1,1,4,cold.png
task-llso,arousal,cold_left,NA,1667959,complete,55,1101.104,NA,0,4,cold.png
task-llso,arousal,cold_left,NA,1667959,complete,56,441.38,1,0,4,passive.png
task-llso,arousal,cold_left,NA,1667959,complete,56,644.37,2,1,4,passive.png
task-llso,arousal,cold_left,NA,1667959,complete,56,1101.112,NA,0,4,passive.png
task-llso,arousal,cold_left,NA,1667959,complete,57,421.96,1,1,4,cold.png
task-llso,arousal,cold_left,NA,1667959,complete,57,1101.168,NA,0,4,cold.png
task-llso,arousal,cold_left,NA,1667959,complete,58,487.865,1,0,4,passive.png
task-llso,arousal,cold_left,NA,1667959,complete,58,547.09,2,1,4,passive.png
task-llso,arousal,cold_left,NA,1667959,complete,58,1101.23,NA,0,4,passive.png
task-llso,arousal,cold_left,NA,1667959,complete,59,538.985,1,1,4,active.png
task-llso,arousal,cold_left,NA,1667959,complete,59,1101.166,NA,0,4,active.png
task-llso,arousal,cold_left,NA,1667959,complete,60,518.89,1,1,4,hot.png
task-llso,arousal,cold_left,NA,1667959,complete,60,1101.152,NA,0,4,hot.png
task-llso,arousal,cold_left,NA,1667959,complete,61,502.615,1,1,4,active.png
task-llso,arousal,cold_left,NA,1667959,complete,61,1101.129,NA,0,4,active.png
task-llso,arousal,cold_left,NA,1667959,complete,62,476.645,1,1,4,active.png
task-llso,arousal,cold_left,NA,1667959,complete,62,1101.128,NA,0,4,active.png
task-llso,arousal,cold_left,NA,1667959,complete,63,384.405,1,1,4,active.png
task-llso,arousal,cold_left,NA,1667959,complete,63,1101.171,NA,0,4,active.png
task-llso,arousal,cold_left,NA,1667959,complete,64,510.04,1,1,4,hot.png
task-llso,arousal,cold_left,NA,1667959,complete,64,1101.173,NA,0,4,hot.png
task-llso,arousal,cold_left,NA,1667959,complete,65,496.215,1,1,4,cold.png
task-llso,arousal,cold_left,NA,1667959,complete,65,1101.142,NA,0,4,cold.png
task-llso,arousal,cold_left,NA,1667959,complete,66,471.545,1,1,4,hot.png
task-llso,arousal,cold_left,NA,1667959,complete,66,1101.112,NA,0,4,hot.png
task-llso,arousal,cold_left,NA,1667959,complete,67,399.86,1,0,4,passive.png
task-llso,arousal,cold_left,NA,1667959,complete,67,559.835,2,1,4,passive.png
task-llso,arousal,cold_left,NA,1667959,complete,67,1101.164,NA,0,4,passive.png
task-llso,arousal,cold_left,NA,1667959,complete,68,1309.86,1,1,4,hot.png
task-llso,arousal,cold_left,NA,1667959,complete,68,1101.225,NA,0,4,hot.png
task-llso,arousal,cold_left,NA,1667959,complete,69,583.54,1,1,4,cold.png
task-llso,arousal,cold_left,NA,1667959,complete,69,1101.195,NA,0,4,cold.png
task-llso,arousal,cold_left,NA,1667959,complete,70,546.36,1,1,4,passive.png
task-llso,arousal,cold_left,NA,1667959,complete,70,1101.136,NA,0,4,passive.png
task-llso,arousal,cold_left,NA,1667959,complete,71,370.595,1,1,4,passive.png
task-llso,arousal,cold_left,NA,1667959,complete,71,1101.119,NA,0,4,passive.png
task-llso,arousal,cold_left,NA,1667959,complete,72,389.275,1,1,4,hot.png
task-llso,arousal,cold_left,NA,1667959,complete,72,1101.143,NA,0,4,hot.png
task-llso,arousal,cold_left,NA,1667959,complete,73,1093.06,1,1,4,active.png
task-llso,arousal,cold_left,NA,1667959,complete,73,1101.164,NA,0,4,active.png
task-llso,arousal,cold_left,NA,1667959,complete,74,784.635,1,1,4,passive.png
task-llso,arousal,cold_left,NA,1667959,complete,74,1101.225,NA,0,4,passive.png
task-llso,arousal,cold_left,NA,1667959,complete,75,535.44,1,1,4,cold.png
task-llso,arousal,cold_left,NA,1667959,complete,75,1101.167,NA,0,4,cold.png
task-llso,arousal,cold_left,NA,1667959,complete,76,782.855,1,1,4,active.png
task-llso,arousal,cold_left,NA,1667959,complete,76,1101.186,NA,0,4,active.png
task-llso,arousal,cold_left,NA,1667959,complete,5,5492.105,NA,0,NA,
task-llso,arousal,cold_left,NA,1667959,complete,5,700.755,NA,0,NA,
task-llso,arousal,cold_left,NA,1667959,complete,77,639.845,1,1,5,active.png
task-llso,arousal,cold_left,NA,1667959,complete,77,1101.205,NA,0,5,active.png
task-llso,arousal,cold_left,NA,1667959,complete,78,359.525,1,1,5,active.png
task-llso,arousal,cold_left,NA,1667959,complete,78,1101.075,NA,0,5,active.png
task-llso,arousal,cold_left,NA,1667959,complete,79,348.195,1,1,5,passive.png
task-llso,arousal,cold_left,NA,1667959,complete,79,1101.241,NA,0,5,passive.png
task-llso,arousal,cold_left,NA,1667959,complete,80,546.63,1,0,5,passive.png
task-llso,arousal,cold_left,NA,1667959,complete,80,683.17,2,1,5,passive.png
task-llso,arousal,cold_left,NA,1667959,complete,80,1101.301,NA,0,5,passive.png
task-llso,arousal,cold_left,NA,1667959,complete,81,550.965,1,1,5,active.png
task-llso,arousal,cold_left,NA,1667959,complete,81,1101.056,NA,0,5,active.png
task-llso,arousal,cold_left,NA,1667959,complete,82,385.215,1,1,5,passive.png
task-llso,arousal,cold_left,NA,1667959,complete,82,1101.165,NA,0,5,passive.png
task-llso,arousal,cold_left,NA,1667959,complete,6,5027.645,NA,0,NA,
task-llso,arousal,cold_left,NA,1667959,complete,6,699.956,NA,0,NA,
task-llso,arousal,cold_left,NA,1667959,complete,83,886.535,1,1,6,active.png
task-llso,arousal,cold_left,NA,1667959,complete,83,1101.112,NA,0,6,active.png
task-llso,arousal,cold_left,NA,1667959,complete,84,692.13,1,1,6,passive.png
task-llso,arousal,cold_left,NA,1667959,complete,84,1101.148,NA,0,6,passive.png
task-llso,arousal,cold_left,NA,1667959,complete,85,603.905,1,1,6,active.png
task-llso,arousal,cold_left,NA,1667959,complete,85,1101.172,NA,0,6,active.png
task-llso,arousal,cold_left,NA,1667959,complete,86,826.145,1,1,6,passive.png
task-llso,arousal,cold_left,NA,1667959,complete,86,1101.066,NA,0,6,passive.png
task-llso,arousal,cold_left,NA,1667959,complete,87,496.915,1,1,6,active.png
task-llso,arousal,cold_left,NA,1667959,complete,87,1101.188,NA,0,6,active.png
task-llso,arousal,cold_left,NA,1667959,complete,88,1860.16,1,1,6,hot.png
task-llso,arousal,cold_left,NA,1667959,complete,88,1101.191,NA,0,6,hot.png
task-llso,arousal,cold_left,NA,1667959,complete,89,497.86,1,1,6,hot.png
task-llso,arousal,cold_left,NA,1667959,complete,89,1101.132,NA,0,6,hot.png
task-llso,arousal,cold_left,NA,1667959,complete,90,1292.785,1,1,6,passive.png
task-llso,arousal,cold_left,NA,1667959,complete,90,1101.191,NA,0,6,passive.png
task-llso,arousal,cold_left,NA,1667959,complete,91,627.325,1,1,6,hot.png
task-llso,arousal,cold_left,NA,1667959,complete,91,1101.164,NA,0,6,hot.png
task-llso,arousal,cold_left,NA,1667959,complete,92,437.24,1,1,6,hot.png
task-llso,arousal,cold_left,NA,1667959,complete,92,1101.166,NA,0,6,hot.png
task-llso,arousal,cold_left,NA,1667959,complete,93,386.255,1,1,6,hot.png
task-llso,arousal,cold_left,NA,1667959,complete,93,1101.136,NA,0,6,hot.png
task-llso,arousal,cold_left,NA,1667959,complete,94,343.135,1,1,6,cold.png
task-llso,arousal,cold_left,NA,1667959,complete,94,1101.159,NA,0,6,cold.png
task-llso,arousal,cold_left,NA,1667959,complete,95,1105.35,1,1,6,passive.png
task-llso,arousal,cold_left,NA,1667959,complete,95,1101.148,NA,0,6,passive.png
task-llso,arousal,cold_left,NA,1667959,complete,96,865.6,1,1,6,cold.png
task-llso,arousal,cold_left,NA,1667959,complete,96,1101.133,NA,0,6,cold.png
task-llso,arousal,cold_left,NA,1667959,complete,97,1571.88,1,1,6,active.png
task-llso,arousal,cold_left,NA,1667959,complete,97,1101.246,NA,0,6,active.png
task-llso,arousal,cold_left,NA,1667959,complete,98,1569.885,1,1,6,hot.png
task-llso,arousal,cold_left,NA,1667959,complete,98,1101.124,NA,0,6,hot.png
task-llso,arousal,cold_left,NA,1667959,complete,99,606.51,1,1,6,cold.png
task-llso,arousal,cold_left,NA,1667959,complete,99,1101.116,NA,0,6,cold.png
task-llso,arousal,cold_left,NA,1667959,complete,100,597.015,1,0,6,passive.png
task-llso,arousal,cold_left,NA,1667959,complete,100,976.17,2,1,6,passive.png
task-llso,arousal,cold_left,NA,1667959,complete,100,1101.147,NA,0,6,passive.png
task-llso,arousal,cold_left,NA,1667959,complete,101,496.98,1,1,6,cold.png
task-llso,arousal,cold_left,NA,1667959,complete,101,1101.112,NA,0,6,cold.png
task-llso,arousal,cold_left,NA,1667959,complete,102,766.25,1,1,6,passive.png
task-llso,arousal,cold_left,NA,1667959,complete,102,1101.172,NA,0,6,passive.png
task-llso,arousal,cold_left,NA,1667959,complete,103,767.42,1,0,6,active.png
task-llso,arousal,cold_left,NA,1667959,complete,103,876.5,2,1,6,active.png
task-llso,arousal,cold_left,NA,1667959,complete,103,1101.104,NA,0,6,active.png
task-llso,arousal,cold_left,NA,1667959,complete,104,1318.335,1,1,6,active.png
task-llso,arousal,cold_left,NA,1667959,complete,104,1101.208,NA,0,6,active.png
task-llso,arousal,cold_left,NA,1667959,complete,105,643.71,1,1,6,cold.png
task-llso,arousal,cold_left,NA,1667959,complete,105,1101.076,NA,0,6,cold.png
task-llso,arousal,cold_left,NA,1667959,complete,106,766.41,1,1,6,active.png
task-llso,arousal,cold_left,NA,1667959,complete,106,1101.18,NA,0,6,active.png
task-llso,arousal,cold_left,NA,1667959,complete,107,715.455,1,1,6,cold.png
task-llso,arousal,cold_left,NA,1667959,complete,107,1101.176,NA,0,6,cold.png
task-llso,arousal,cold_left,NA,1667959,complete,108,417.34,1,1,6,cold.png
task-llso,arousal,cold_left,NA,1667959,complete,108,1101.254,NA,0,6,cold.png
task-llso,arousal,cold_left,NA,1667959,complete,109,678.035,1,0,6,active.png
task-llso,arousal,cold_left,NA,1667959,complete,109,998.045,2,1,6,active.png
task-llso,arousal,cold_left,NA,1667959,complete,109,1101.165,NA,0,6,active.png
task-llso,arousal,cold_left,NA,1667959,complete,110,950.95,1,1,6,passive.png
task-llso,arousal,cold_left,NA,1667959,complete,110,1101.197,NA,0,6,passive.png
task-llso,arousal,cold_left,NA,1667959,complete,111,1692.52,1,1,6,passive.png
task-llso,arousal,cold_left,NA,1667959,complete,111,1101.245,NA,0,6,passive.png
task-llso,arousal,cold_left,NA,1667959,complete,112,1099.28,1,1,6,hot.png
task-llso,arousal,cold_left,NA,1667959,complete,112,1101.164,NA,0,6,hot.png
task-llso,arousal,cold_left,NA,1667959,complete,113,523.42,1,1,6,hot.png
task-llso,arousal,cold_left,NA,1667959,complete,113,1101.103,NA,0,6,hot.png
task-llso,arousal,cold_left,NA,1667959,complete,114,603.955,1,1,6,cold.png
task-llso,arousal,cold_left,NA,1667959,complete,114,1101.144,NA,0,6,cold.png
task-llso,arousal,cold_left,NA,1667959,complete,7,2436.42,NA,0,NA,
task-llso,arousal,cold_left,NA,1667959,complete,7,700.663,NA,0,NA,
task-llso,arousal,cold_left,NA,1667959,complete,115,814.905,1,1,7,passive.png
task-llso,arousal,cold_left,NA,1667959,complete,115,1101.151,NA,0,7,passive.png
task-llso,arousal,cold_left,NA,1667959,complete,116,532.535,1,1,7,active.png
task-llso,arousal,cold_left,NA,1667959,complete,116,1101.109,NA,0,7,active.png
task-llso,arousal,cold_left,NA,1667959,complete,117,522.385,1,0,7,hot.png
task-llso,arousal,cold_left,NA,1667959,complete,117,1392.66,2,1,7,hot.png
task-llso,arousal,cold_left,NA,1667959,complete,117,1101.173,NA,0,7,hot.png
task-llso,arousal,cold_left,NA,1667959,complete,118,569.95,1,0,7,passive.png
task-llso,arousal,cold_left,NA,1667959,complete,118,1901.795,2,1,7,passive.png
task-llso,arousal,cold_left,NA,1667959,complete,118,1101.147,NA,0,7,passive.png
task-llso,arousal,cold_left,NA,1667959,complete,119,1432.69,1,1,7,hot.png
task-llso,arousal,cold_left,NA,1667959,complete,119,1101.118,NA,0,7,hot.png
task-llso,arousal,cold_left,NA,1667959,complete,120,491.94,1,1,7,hot.png
task-llso,arousal,cold_left,NA,1667959,complete,120,1101.155,NA,0,7,hot.png
task-llso,arousal,cold_left,NA,1667959,complete,121,473.46,1,0,7,passive.png
task-llso,arousal,cold_left,NA,1667959,complete,121,1666.84,2,1,7,passive.png
task-llso,arousal,cold_left,NA,1667959,complete,121,1101.16,NA,0,7,passive.png
task-llso,arousal,cold_left,NA,1667959,complete,122,570.95,1,1,7,passive.png
task-llso,arousal,cold_left,NA,1667959,complete,122,1101.125,NA,0,7,passive.png
task-llso,arousal,cold_left,NA,1667959,complete,123,887.675,1,1,7,passive.png
task-llso,arousal,cold_left,NA,1667959,complete,123,1101.259,NA,0,7,passive.png
task-llso,arousal,cold_left,NA,1667959,complete,124,694.735,1,1,7,cold.png
task-llso,arousal,cold_left,NA,1667959,complete,124,1101.152,NA,0,7,cold.png
task-llso,arousal,cold_left,NA,1667959,complete,125,379.98,1,0,7,hot.png
task-llso,arousal,cold_left,NA,1667959,complete,125,667.23,2,1,7,hot.png
task-llso,arousal,cold_left,NA,1667959,complete,125,1101.134,NA,0,7,hot.png
task-llso,arousal,cold_left,NA,1667959,complete,126,897.22,1,1,7,hot.png
task-llso,arousal,cold_left,NA,1667959,complete,126,1101.17,NA,0,7,hot.png
task-llso,arousal,cold_left,NA,1667959,complete,127,1212.1,1,1,7,passive.png
task-llso,arousal,cold_left,NA,1667959,complete,127,1101.092,NA,0,7,passive.png
task-llso,arousal,cold_left,NA,1667959,complete,128,1072.62,1,1,7,hot.png
task-llso,arousal,cold_left,NA,1667959,complete,128,1101.228,NA,0,7,hot.png
task-llso,arousal,cold_left,NA,1667959,complete,129,1087.24,1,1,7,active.png
task-llso,arousal,cold_left,NA,1667959,complete,129,1101.146,NA,0,7,active.png
task-llso,arousal,cold_left,NA,1667959,complete,130,578.4,1,1,7,cold.png
task-llso,arousal,cold_left,NA,1667959,complete,130,1101.079,NA,0,7,cold.png
task-llso,arousal,cold_left,NA,1667959,complete,131,420.605,1,1,7,cold.png
task-llso,arousal,cold_left,NA,1667959,complete,131,1101.183,NA,0,7,cold.png
task-llso,arousal,cold_left,NA,1667959,complete,132,504.78,1,1,7,cold.png
task-llso,arousal,cold_left,NA,1667959,complete,132,1101.53,NA,0,7,cold.png
task-llso,arousal,cold_left,NA,1667959,complete,133,2540.93,1,1,7,passive.png
task-llso,arousal,cold_left,NA,1667959,complete,133,1101.166,NA,0,7,passive.png
task-llso,arousal,cold_left,NA,1667959,complete,134,997.835,1,1,7,hot.png
task-llso,arousal,cold_left,NA,1667959,complete,134,1101.179,NA,0,7,hot.png
task-llso,arousal,cold_left,NA,1667959,complete,135,674.555,1,1,7,passive.png
task-llso,arousal,cold_left,NA,1667959,complete,135,1101.028,NA,0,7,passive.png
task-llso,arousal,cold_left,NA,1667959,complete,136,901.045,1,1,7,cold.png
task-llso,arousal,cold_left,NA,1667959,complete,136,1101.162,NA,0,7,cold.png
task-llso,arousal,cold_left,NA,1667959,complete,137,887.18,1,1,7,active.png
task-llso,arousal,cold_left,NA,1667959,complete,137,1101.222,NA,0,7,active.png
task-llso,arousal,cold_left,NA,1667959,complete,138,401.715,1,1,7,active.png
task-llso,arousal,cold_left,NA,1667959,complete,138,1101.178,NA,0,7,active.png
task-llso,arousal,cold_left,NA,1667959,complete,139,798.77,1,1,7,hot.png
task-llso,arousal,cold_left,NA,1667959,complete,139,1101.156,NA,0,7,hot.png
task-llso,arousal,cold_left,NA,1667959,complete,140,455.775,1,1,7,hot.png
task-llso,arousal,cold_left,NA,1667959,complete,140,1101.173,NA,0,7,hot.png
task-llso,arousal,cold_left,NA,1667959,complete,141,467.235,1,1,7,hot.png
task-llso,arousal,cold_left,NA,1667959,complete,141,1101.261,NA,0,7,hot.png
task-llso,arousal,cold_left,NA,1667959,complete,142,741.72,1,1,7,hot.png
task-llso,arousal,cold_left,NA,1667959,complete,142,1101.215,NA,0,7,hot.png
task-llso,arousal,cold_left,NA,1667959,complete,143,738.24,1,1,7,active.png
task-llso,arousal,cold_left,NA,1667959,complete,143,1101.258,NA,0,7,active.png
task-llso,arousal,cold_left,NA,1667959,complete,144,899.86,1,1,7,active.png
task-llso,arousal,cold_left,NA,1667959,complete,144,1101.251,NA,0,7,active.png
task-llso,arousal,cold_left,NA,1667959,complete,145,813.34,1,1,7,active.png
task-llso,arousal,cold_left,NA,1667959,complete,145,1101.191,NA,0,7,active.png
task-llso,arousal,cold_left,NA,1667959,complete,146,643.63,1,1,7,passive.png
task-llso,arousal,cold_left,NA,1667959,complete,146,1101.159,NA,0,7,passive.png
task-llso,arousal,cold_left,NA,1667959,complete,147,649.75,1,1,7,active.png
task-llso,arousal,cold_left,NA,1667959,complete,147,1101.082,NA,0,7,active.png
task-llso,arousal,cold_left,NA,1667959,complete,148,865.235,1,1,7,cold.png
task-llso,arousal,cold_left,NA,1667959,complete,148,1101.125,NA,0,7,cold.png
task-llso,arousal,cold_left,NA,1667959,complete,149,770.66,1,1,7,active.png
task-llso,arousal,cold_left,NA,1667959,complete,149,1101.175,NA,0,7,active.png
task-llso,arousal,cold_left,NA,1667959,complete,150,468.76,1,1,7,cold.png
task-llso,arousal,cold_left,NA,1667959,complete,150,1101.164,NA,0,7,cold.png
task-llso,arousal,cold_left,NA,1667959,complete,151,721.985,1,0,7,passive.png
task-llso,arousal,cold_left,NA,1667959,complete,151,1854.075,2,1,7,passive.png
task-llso,arousal,cold_left,NA,1667959,complete,151,1101.154,NA,0,7,passive.png
task-llso,arousal,cold_left,NA,1667959,complete,152,589.25,1,1,7,cold.png
task-llso,arousal,cold_left,NA,1667959,complete,152,1101.122,NA,0,7,cold.png
task-llso,arousal,cold_left,NA,1667959,complete,153,433.345,1,1,7,cold.png
task-llso,arousal,cold_left,NA,1667959,complete,153,1101.16,NA,0,7,cold.png
task-llso,arousal,cold_left,NA,1667959,complete,154,1066.37,1,1,7,active.png
task-llso,arousal,cold_left,NA,1667959,complete,154,1101.165,NA,0,7,active.png
task-llso,arousal,cold_left,NA,1667959,complete,155,1112.865,1,1,7,passive.png
task-llso,arousal,cold_left,NA,1667959,complete,155,1101.109,NA,0,7,passive.png
task-llso,arousal,cold_left,NA,1667959,complete,156,520.97,1,1,7,cold.png
task-llso,arousal,cold_left,NA,1667959,complete,156,1101.179,NA,0,7,cold.png
task-llso,arousal,cold_left,NA,1667959,complete,157,726.275,1,1,7,active.png
task-llso,arousal,cold_left,NA,1667959,complete,157,1101.189,NA,0,7,active.png
task-llso,arousal,cold_left,NA,1667959,complete,158,1112.37,1,1,7,passive.png
task-llso,arousal,cold_left,NA,1667959,complete,158,1101.181,NA,0,7,passive.png
task-llso,arousal,cold_left,NA,1667959,complete,159,641.44,1,1,7,cold.png
task-llso,arousal,cold_left,NA,1667959,complete,159,1101.167,NA,0,7,cold.png
task-llso,arousal,cold_left,NA,1667959,complete,160,590.73,1,1,7,hot.png
task-llso,arousal,cold_left,NA,1667959,complete,160,1101.145,NA,0,7,hot.png
task-llso,arousal,cold_left,NA,1667959,complete,161,431.675,1,1,7,cold.png
task-llso,arousal,cold_left,NA,1667959,complete,161,1101.206,NA,0,7,cold.png
task-llso,arousal,cold_left,NA,1667959,complete,162,505.935,1,1,7,active.png
task-llso,arousal,cold_left,NA,1667959,complete,162,1101.151,NA,0,7,active.png
task-llso,arousal,cold_left,NA,1667959,complete,END TASK,351796,NA,0,NA,
task-llso,arousal,cold_left,NA,1667975,complete,BEGIN TASK,,NA,0,NA,
task-llso,arousal,cold_left,NA,1667975,complete,1,4447,NA,0,NA,
task-llso,arousal,cold_left,NA,1667975,complete,1,699,NA,0,NA,
task-llso,arousal,cold_left,NA,1667975,complete,1,1563,1,1,1,passive.png
task-llso,arousal,cold_left,NA,1667975,complete,1,1101,NA,0,1,passive.png
task-llso,arousal,cold_left,NA,1667975,complete,2,692,1,0,1,passive.png
task-llso,arousal,cold_left,NA,1667975,complete,2,2308,2,1,1,passive.png
task-llso,arousal,cold_left,NA,1667975,complete,2,1101,NA,0,1,passive.png
task-llso,arousal,cold_left,NA,1667975,complete,3,898,1,0,1,active.png
task-llso,arousal,cold_left,NA,1667975,complete,3,2987,2,1,1,active.png
task-llso,arousal,cold_left,NA,1667975,complete,3,1099,NA,0,1,active.png
task-llso,arousal,cold_left,NA,1667975,complete,4,997,1,1,1,active.png
task-llso,arousal,cold_left,NA,1667975,complete,4,1101,NA,0,1,active.png
task-llso,arousal,cold_left,NA,1667975,complete,5,729,1,1,1,active.png
task-llso,arousal,cold_left,NA,1667975,complete,5,1100,NA,0,1,active.png
task-llso,arousal,cold_left,NA,1667975,complete,6,687,1,1,1,passive.png
task-llso,arousal,cold_left,NA,1667975,complete,6,1100,NA,0,1,passive.png
task-llso,arousal,cold_left,NA,1667975,complete,2,3024,NA,0,NA,
task-llso,arousal,cold_left,NA,1667975,complete,2,700,NA,0,NA,
task-llso,arousal,cold_left,NA,1667975,complete,7,501,1,1,2,cold.png
task-llso,arousal,cold_left,NA,1667975,complete,7,1101,NA,0,2,cold.png
task-llso,arousal,cold_left,NA,1667975,complete,8,352,1,1,2,cold.png
task-llso,arousal,cold_left,NA,1667975,complete,8,1101,NA,0,2,cold.png
task-llso,arousal,cold_left,NA,1667975,complete,9,288,1,1,2,cold.png
task-llso,arousal,cold_left,NA,1667975,complete,9,1100,NA,0,2,cold.png
task-llso,arousal,cold_left,NA,1667975,complete,10,416,1,1,2,hot.png
task-llso,arousal,cold_left,NA,1667975,complete,10,1101,NA,0,2,hot.png
task-llso,arousal,cold_left,NA,1667975,complete,11,368,1,1,2,hot.png
task-llso,arousal,cold_left,NA,1667975,complete,11,1100,NA,0,2,hot.png
task-llso,arousal,cold_left,NA,1667975,complete,12,359,1,1,2,hot.png
task-llso,arousal,cold_left,NA,1667975,complete,12,1100,NA,0,2,hot.png
task-llso,arousal,cold_left,NA,1667975,complete,3,5695,NA,0,NA,
task-llso,arousal,cold_left,NA,1667975,complete,3,700,NA,0,NA,
task-llso,arousal,cold_left,NA,1667975,complete,13,1108,1,0,3,passive.png
task-llso,arousal,cold_left,NA,1667975,complete,13,2508,2,1,3,passive.png
task-llso,arousal,cold_left,NA,1667975,complete,13,1100,NA,0,3,passive.png
task-llso,arousal,cold_left,NA,1667975,complete,14,403,1,1,3,passive.png
task-llso,arousal,cold_left,NA,1667975,complete,14,1101,NA,0,3,passive.png
task-llso,arousal,cold_left,NA,1667975,complete,15,338,1,1,3,passive.png
task-llso,arousal,cold_left,NA,1667975,complete,15,1100,NA,0,3,passive.png
task-llso,arousal,cold_left,NA,1667975,complete,16,580,1,1,3,cold.png
task-llso,arousal,cold_left,NA,1667975,complete,16,1100,NA,0,3,cold.png
task-llso,arousal,cold_left,NA,1667975,complete,17,455,1,1,3,hot.png
task-llso,arousal,cold_left,NA,1667975,complete,17,1100,NA,0,3,hot.png
task-llso,arousal,cold_left,NA,1667975,complete,18,400,1,1,3,hot.png
task-llso,arousal,cold_left,NA,1667975,complete,18,1101,NA,0,3,hot.png
task-llso,arousal,cold_left,NA,1667975,complete,19,356,1,1,3,hot.png
task-llso,arousal,cold_left,NA,1667975,complete,19,1100,NA,0,3,hot.png
task-llso,arousal,cold_left,NA,1667975,complete,20,405,1,0,3,active.png
task-llso,arousal,cold_left,NA,1667975,complete,20,1422,2,1,3,active.png
task-llso,arousal,cold_left,NA,1667975,complete,20,1100,NA,0,3,active.png
task-llso,arousal,cold_left,NA,1667975,complete,21,1164,1,1,3,cold.png
task-llso,arousal,cold_left,NA,1667975,complete,21,1101,NA,0,3,cold.png
task-llso,arousal,cold_left,NA,1667975,complete,22,725,1,1,3,hot.png
task-llso,arousal,cold_left,NA,1667975,complete,22,1101,NA,0,3,hot.png
task-llso,arousal,cold_left,NA,1667975,complete,23,2008,1,1,3,active.png
task-llso,arousal,cold_left,NA,1667975,complete,23,1100,NA,0,3,active.png
task-llso,arousal,cold_left,NA,1667975,complete,24,550,1,1,3,active.png
task-llso,arousal,cold_left,NA,1667975,complete,24,1101,NA,0,3,active.png
task-llso,arousal,cold_left,NA,1667975,complete,25,446,1,1,3,cold.png
task-llso,arousal,cold_left,NA,1667975,complete,25,1100,NA,0,3,cold.png
task-llso,arousal,cold_left,NA,1667975,complete,26,932,1,1,3,passive.png
task-llso,arousal,cold_left,NA,1667975,complete,26,1099,NA,0,3,passive.png
task-llso,arousal,cold_left,NA,1667975,complete,27,575,1,1,3,active.png
task-llso,arousal,cold_left,NA,1667975,complete,27,1100,NA,0,3,active.png
task-llso,arousal,cold_left,NA,1667975,complete,28,1376,1,1,3,cold.png
task-llso,arousal,cold_left,NA,1667975,complete,28,1100,NA,0,3,cold.png
task-llso,arousal,cold_left,NA,1667975,complete,4,2736,NA,0,NA,
task-llso,arousal,cold_left,NA,1667975,complete,4,701,NA,0,NA,
task-llso,arousal,cold_left,NA,1667975,complete,29,980,1,1,4,passive.png
task-llso,arousal,cold_left,NA,1667975,complete,29,1100,NA,0,4,passive.png
task-llso,arousal,cold_left,NA,1667975,complete,30,538,1,1,4,active.png
task-llso,arousal,cold_left,NA,1667975,complete,30,1101,NA,0,4,active.png
task-llso,arousal,cold_left,NA,1667975,complete,31,528,1,0,4,passive.png
task-llso,arousal,cold_left,NA,1667975,complete,31,1247,2,1,4,passive.png
task-llso,arousal,cold_left,NA,1667975,complete,31,1099,NA,0,4,passive.png
task-llso,arousal,cold_left,NA,1667975,complete,32,772,1,1,4,active.png
task-llso,arousal,cold_left,NA,1667975,complete,32,1101,NA,0,4,active.png
task-llso,arousal,cold_left,NA,1667975,complete,33,617,1,1,4,passive.png
task-llso,arousal,cold_left,NA,1667975,complete,33,1100,NA,0,4,passive.png
task-llso,arousal,cold_left,NA,1667975,complete,34,1170,1,1,4,active.png
task-llso,arousal,cold_left,NA,1667975,complete,34,1101,NA,0,4,active.png
task-llso,arousal,cold_left,NA,1667975,complete,35,565,1,1,4,active.png
task-llso,arousal,cold_left,NA,1667975,complete,35,1101,NA,0,4,active.png
task-llso,arousal,cold_left,NA,1667975,complete,36,442,1,1,4,active.png
task-llso,arousal,cold_left,NA,1667975,complete,36,1100,NA,0,4,active.png
task-llso,arousal,cold_left,NA,1667975,complete,37,681,1,1,4,hot.png
task-llso,arousal,cold_left,NA,1667975,complete,37,1100,NA,0,4,hot.png
task-llso,arousal,cold_left,NA,1667975,complete,38,613,1,1,4,cold.png
task-llso,arousal,cold_left,NA,1667975,complete,38,1099,NA,0,4,cold.png
task-llso,arousal,cold_left,NA,1667975,complete,39,650,1,1,4,cold.png
task-llso,arousal,cold_left,NA,1667975,complete,39,1101,NA,0,4,cold.png
task-llso,arousal,cold_left,NA,1667975,complete,40,498,1,1,4,hot.png
task-llso,arousal,cold_left,NA,1667975,complete,40,1100,NA,0,4,hot.png
task-llso,arousal,cold_left,NA,1667975,complete,41,719,1,1,4,cold.png
task-llso,arousal,cold_left,NA,1667975,complete,41,1101,NA,0,4,cold.png
task-llso,arousal,cold_left,NA,1667975,complete,42,453,1,1,4,cold.png
task-llso,arousal,cold_left,NA,1667975,complete,42,1101,NA,0,4,cold.png
task-llso,arousal,cold_left,NA,1667975,complete,43,549,1,1,4,hot.png
task-llso,arousal,cold_left,NA,1667975,complete,43,1101,NA,0,4,hot.png
task-llso,arousal,cold_left,NA,1667975,complete,44,1606,1,1,4,active.png
task-llso,arousal,cold_left,NA,1667975,complete,44,1101,NA,0,4,active.png
task-llso,arousal,cold_left,NA,1667975,complete,45,495,1,1,4,active.png
task-llso,arousal,cold_left,NA,1667975,complete,45,1100,NA,0,4,active.png
task-llso,arousal,cold_left,NA,1667975,complete,46,662,1,1,4,passive.png
task-llso,arousal,cold_left,NA,1667975,complete,46,1100,NA,0,4,passive.png
task-llso,arousal,cold_left,NA,1667975,complete,47,680,1,1,4,passive.png
task-llso,arousal,cold_left,NA,1667975,complete,47,1100,NA,0,4,passive.png
task-llso,arousal,cold_left,NA,1667975,complete,48,532,1,1,4,active.png
task-llso,arousal,cold_left,NA,1667975,complete,48,1099,NA,0,4,active.png
task-llso,arousal,cold_left,NA,1667975,complete,49,955,1,1,4,cold.png
task-llso,arousal,cold_left,NA,1667975,complete,49,1101,NA,0,4,cold.png
task-llso,arousal,cold_left,NA,1667975,complete,50,1145,1,1,4,active.png
task-llso,arousal,cold_left,NA,1667975,complete,50,1099,NA,0,4,active.png
task-llso,arousal,cold_left,NA,1667975,complete,51,706,1,1,4,passive.png
task-llso,arousal,cold_left,NA,1667975,complete,51,1101,NA,0,4,passive.png
task-llso,arousal,cold_left,NA,1667975,complete,52,652,1,1,4,hot.png
task-llso,arousal,cold_left,NA,1667975,complete,52,1101,NA,0,4,hot.png
task-llso,arousal,cold_left,NA,1667975,complete,53,458,1,1,4,passive.png
task-llso,arousal,cold_left,NA,1667975,complete,53,1100,NA,0,4,passive.png
task-llso,arousal,cold_left,NA,1667975,complete,54,553,1,1,4,hot.png
task-llso,arousal,cold_left,NA,1667975,complete,54,1101,NA,0,4,hot.png
task-llso,arousal,cold_left,NA,1667975,complete,55,440,1,1,4,passive.png
task-llso,arousal,cold_left,NA,1667975,complete,55,1100,NA,0,4,passive.png
task-llso,arousal,cold_left,NA,1667975,complete,56,585,1,1,4,cold.png
task-llso,arousal,cold_left,NA,1667975,complete,56,1101,NA,0,4,cold.png
task-llso,arousal,cold_left,NA,1667975,complete,57,698,1,1,4,passive.png
task-llso,arousal,cold_left,NA,1667975,complete,57,1100,NA,0,4,passive.png
task-llso,arousal,cold_left,NA,1667975,complete,58,636,1,1,4,cold.png
task-llso,arousal,cold_left,NA,1667975,complete,58,1100,NA,0,4,cold.png
task-llso,arousal,cold_left,NA,1667975,complete,59,499,1,1,4,hot.png
task-llso,arousal,cold_left,NA,1667975,complete,59,1101,NA,0,4,hot.png
task-llso,arousal,cold_left,NA,1667975,complete,60,402,1,1,4,hot.png
task-llso,arousal,cold_left,NA,1667975,complete,60,1101,NA,0,4,hot.png
task-llso,arousal,cold_left,NA,1667975,complete,61,440,1,0,4,active.png
task-llso,arousal,cold_left,NA,1667975,complete,61,1065,2,1,4,active.png
task-llso,arousal,cold_left,NA,1667975,complete,61,1100,NA,0,4,active.png
task-llso,arousal,cold_left,NA,1667975,complete,62,479,1,1,4,active.png
task-llso,arousal,cold_left,NA,1667975,complete,62,1101,NA,0,4,active.png
task-llso,arousal,cold_left,NA,1667975,complete,63,682,1,1,4,hot.png
task-llso,arousal,cold_left,NA,1667975,complete,63,1100,NA,0,4,hot.png
task-llso,arousal,cold_left,NA,1667975,complete,64,324,1,1,4,hot.png
task-llso,arousal,cold_left,NA,1667975,complete,64,1100,NA,0,4,hot.png
task-llso,arousal,cold_left,NA,1667975,complete,65,403,1,0,4,active.png
task-llso,arousal,cold_left,NA,1667975,complete,65,836,2,1,4,active.png
task-llso,arousal,cold_left,NA,1667975,complete,65,1101,NA,0,4,active.png
task-llso,arousal,cold_left,NA,1667975,complete,66,522,1,1,4,hot.png
task-llso,arousal,cold_left,NA,1667975,complete,66,1101,NA,0,4,hot.png
task-llso,arousal,cold_left,NA,1667975,complete,67,605,1,1,4,cold.png
task-llso,arousal,cold_left,NA,1667975,complete,67,1101,NA,0,4,cold.png
task-llso,arousal,cold_left,NA,1667975,complete,68,512,1,1,4,cold.png
task-llso,arousal,cold_left,NA,1667975,complete,68,1101,NA,0,4,cold.png
task-llso,arousal,cold_left,NA,1667975,complete,69,427,1,1,4,cold.png
task-llso,arousal,cold_left,NA,1667975,complete,69,1100,NA,0,4,cold.png
task-llso,arousal,cold_left,NA,1667975,complete,70,943,1,1,4,passive.png
task-llso,arousal,cold_left,NA,1667975,complete,70,1100,NA,0,4,passive.png
task-llso,arousal,cold_left,NA,1667975,complete,71,613,1,1,4,cold.png
task-llso,arousal,cold_left,NA,1667975,complete,71,1100,NA,0,4,cold.png
task-llso,arousal,cold_left,NA,1667975,complete,72,828,1,1,4,passive.png
task-llso,arousal,cold_left,NA,1667975,complete,72,1100,NA,0,4,passive.png
task-llso,arousal,cold_left,NA,1667975,complete,73,602,1,1,4,hot.png
task-llso,arousal,cold_left,NA,1667975,complete,73,1100,NA,0,4,hot.png
task-llso,arousal,cold_left,NA,1667975,complete,74,953,1,1,4,cold.png
task-llso,arousal,cold_left,NA,1667975,complete,74,1101,NA,0,4,cold.png
task-llso,arousal,cold_left,NA,1667975,complete,75,819,1,1,4,hot.png
task-llso,arousal,cold_left,NA,1667975,complete,75,1100,NA,0,4,hot.png
task-llso,arousal,cold_left,NA,1667975,complete,76,1235,1,1,4,passive.png
task-llso,arousal,cold_left,NA,1667975,complete,76,1100,NA,0,4,passive.png
task-llso,arousal,cold_left,NA,1667975,complete,5,4380,NA,0,NA,
task-llso,arousal,cold_left,NA,1667975,complete,5,701,NA,0,NA,
task-llso,arousal,cold_left,NA,1667975,complete,77,1231,1,1,5,active.png
task-llso,arousal,cold_left,NA,1667975,complete,77,1100,NA,0,5,active.png
task-llso,arousal,cold_left,NA,1667975,complete,78,360,1,1,5,active.png
task-llso,arousal,cold_left,NA,1667975,complete,78,1100,NA,0,5,active.png
task-llso,arousal,cold_left,NA,1667975,complete,79,518,1,1,5,passive.png
task-llso,arousal,cold_left,NA,1667975,complete,79,1101,NA,0,5,passive.png
task-llso,arousal,cold_left,NA,1667975,complete,80,560,1,1,5,passive.png
task-llso,arousal,cold_left,NA,1667975,complete,80,1100,NA,0,5,passive.png
task-llso,arousal,cold_left,NA,1667975,complete,81,452,1,1,5,active.png
task-llso,arousal,cold_left,NA,1667975,complete,81,1100,NA,0,5,active.png
task-llso,arousal,cold_left,NA,1667975,complete,82,555,1,1,5,passive.png
task-llso,arousal,cold_left,NA,1667975,complete,82,1100,NA,0,5,passive.png
task-llso,arousal,cold_left,NA,1667975,complete,6,19207,NA,0,NA,
task-llso,arousal,cold_left,NA,1667975,complete,6,701,NA,0,NA,
task-llso,arousal,cold_left,NA,1667975,complete,83,1233,1,1,6,cold.png
task-llso,arousal,cold_left,NA,1667975,complete,83,1101,NA,0,6,cold.png
task-llso,arousal,cold_left,NA,1667975,complete,84,526,1,1,6,hot.png
task-llso,arousal,cold_left,NA,1667975,complete,84,1100,NA,0,6,hot.png
task-llso,arousal,cold_left,NA,1667975,complete,85,540,1,0,6,passive.png
task-llso,arousal,cold_left,NA,1667975,complete,85,1214,2,1,6,passive.png
task-llso,arousal,cold_left,NA,1667975,complete,85,1100,NA,0,6,passive.png
task-llso,arousal,cold_left,NA,1667975,complete,86,823,1,1,6,hot.png
task-llso,arousal,cold_left,NA,1667975,complete,86,1100,NA,0,6,hot.png
task-llso,arousal,cold_left,NA,1667975,complete,87,806,1,1,6,active.png
task-llso,arousal,cold_left,NA,1667975,complete,87,1100,NA,0,6,active.png
task-llso,arousal,cold_left,NA,1667975,complete,88,686,1,1,6,hot.png
task-llso,arousal,cold_left,NA,1667975,complete,88,1101,NA,0,6,hot.png
task-llso,arousal,cold_left,NA,1667975,complete,89,966,1,1,6,passive.png
task-llso,arousal,cold_left,NA,1667975,complete,89,1100,NA,0,6,passive.png
task-llso,arousal,cold_left,NA,1667975,complete,90,730,1,1,6,active.png
task-llso,arousal,cold_left,NA,1667975,complete,90,1100,NA,0,6,active.png
task-llso,arousal,cold_left,NA,1667975,complete,91,443,1,1,6,cold.png
task-llso,arousal,cold_left,NA,1667975,complete,91,1100,NA,0,6,cold.png
task-llso,arousal,cold_left,NA,1667975,complete,92,507,1,1,6,cold.png
task-llso,arousal,cold_left,NA,1667975,complete,92,1100,NA,0,6,cold.png
task-llso,arousal,cold_left,NA,1667975,complete,93,499,1,1,6,cold.png
task-llso,arousal,cold_left,NA,1667975,complete,93,1100,NA,0,6,cold.png
task-llso,arousal,cold_left,NA,1667975,complete,94,440,1,1,6,cold.png
task-llso,arousal,cold_left,NA,1667975,complete,94,1100,NA,0,6,cold.png
task-llso,arousal,cold_left,NA,1667975,complete,95,984,1,1,6,active.png
task-llso,arousal,cold_left,NA,1667975,complete,95,1100,NA,0,6,active.png
task-llso,arousal,cold_left,NA,1667975,complete,96,789,1,1,6,passive.png
task-llso,arousal,cold_left,NA,1667975,complete,96,1100,NA,0,6,passive.png
task-llso,arousal,cold_left,NA,1667975,complete,97,683,1,0,6,passive.png
task-llso,arousal,cold_left,NA,1667975,complete,97,1318,2,1,6,passive.png
task-llso,arousal,cold_left,NA,1667975,complete,97,1100,NA,0,6,passive.png
task-llso,arousal,cold_left,NA,1667975,complete,98,664,1,1,6,passive.png
task-llso,arousal,cold_left,NA,1667975,complete,98,1100,NA,0,6,passive.png
task-llso,arousal,cold_left,NA,1667975,complete,99,478,1,1,6,active.png
task-llso,arousal,cold_left,NA,1667975,complete,99,1100,NA,0,6,active.png
task-llso,arousal,cold_left,NA,1667975,complete,100,393,1,1,6,active.png
task-llso,arousal,cold_left,NA,1667975,complete,100,1101,NA,0,6,active.png
task-llso,arousal,cold_left,NA,1667975,complete,101,548,1,1,6,active.png
task-llso,arousal,cold_left,NA,1667975,complete,101,1100,NA,0,6,active.png
task-llso,arousal,cold_left,NA,1667975,complete,102,378,1,1,6,active.png
task-llso,arousal,cold_left,NA,1667975,complete,102,1100,NA,0,6,active.png
task-llso,arousal,cold_left,NA,1667975,complete,103,893,1,1,6,hot.png
task-llso,arousal,cold_left,NA,1667975,complete,103,1100,NA,0,6,hot.png
task-llso,arousal,cold_left,NA,1667975,complete,104,557,1,1,6,cold.png
task-llso,arousal,cold_left,NA,1667975,complete,104,1100,NA,0,6,cold.png
task-llso,arousal,cold_left,NA,1667975,complete,105,411,1,1,6,cold.png
task-llso,arousal,cold_left,NA,1667975,complete,105,1100,NA,0,6,cold.png
task-llso,arousal,cold_left,NA,1667975,complete,106,842,1,1,6,hot.png
task-llso,arousal,cold_left,NA,1667975,complete,106,1100,NA,0,6,hot.png
task-llso,arousal,cold_left,NA,1667975,complete,107,580,1,1,6,hot.png
task-llso,arousal,cold_left,NA,1667975,complete,107,1100,NA,0,6,hot.png
task-llso,arousal,cold_left,NA,1667975,complete,108,614,1,1,6,cold.png
task-llso,arousal,cold_left,NA,1667975,complete,108,1100,NA,0,6,cold.png
task-llso,arousal,cold_left,NA,1667975,complete,109,806,1,1,6,active.png
task-llso,arousal,cold_left,NA,1667975,complete,109,1100,NA,0,6,active.png
task-llso,arousal,cold_left,NA,1667975,complete,110,768,1,1,6,hot.png
task-llso,arousal,cold_left,NA,1667975,complete,110,1101,NA,0,6,hot.png
task-llso,arousal,cold_left,NA,1667975,complete,111,1081,1,1,6,passive.png
task-llso,arousal,cold_left,NA,1667975,complete,111,1100,NA,0,6,passive.png
task-llso,arousal,cold_left,NA,1667975,complete,112,918,1,1,6,hot.png
task-llso,arousal,cold_left,NA,1667975,complete,112,1102,NA,0,6,hot.png
task-llso,arousal,cold_left,NA,1667975,complete,113,897,1,1,6,passive.png
task-llso,arousal,cold_left,NA,1667975,complete,113,1100,NA,0,6,passive.png
task-llso,arousal,cold_left,NA,1667975,complete,114,860,1,1,6,passive.png
task-llso,arousal,cold_left,NA,1667975,complete,114,1100,NA,0,6,passive.png
task-llso,arousal,cold_left,NA,1667975,complete,7,5502,NA,0,NA,
task-llso,arousal,cold_left,NA,1667975,complete,7,700,NA,0,NA,
task-llso,arousal,cold_left,NA,1667975,complete,115,899,1,1,7,cold.png
task-llso,arousal,cold_left,NA,1667975,complete,115,1100,NA,0,7,cold.png
task-llso,arousal,cold_left,NA,1667975,complete,116,930,1,1,7,passive.png
task-llso,arousal,cold_left,NA,1667975,complete,116,1100,NA,0,7,passive.png
task-llso,arousal,cold_left,NA,1667975,complete,117,554,1,1,7,cold.png
task-llso,arousal,cold_left,NA,1667975,complete,117,1101,NA,0,7,cold.png
task-llso,arousal,cold_left,NA,1667975,complete,118,461,1,1,7,passive.png
task-llso,arousal,cold_left,NA,1667975,complete,118,1101,NA,0,7,passive.png
task-llso,arousal,cold_left,NA,1667975,complete,119,1038,1,1,7,active.png
task-llso,arousal,cold_left,NA,1667975,complete,119,1100,NA,0,7,active.png
task-llso,arousal,cold_left,NA,1667975,complete,120,543,1,1,7,active.png
task-llso,arousal,cold_left,NA,1667975,complete,120,1101,NA,0,7,active.png
task-llso,arousal,cold_left,NA,1667975,complete,121,386,1,1,7,active.png
task-llso,arousal,cold_left,NA,1667975,complete,121,1102,NA,0,7,active.png
task-llso,arousal,cold_left,NA,1667975,complete,122,614,1,1,7,active.png
task-llso,arousal,cold_left,NA,1667975,complete,122,1100,NA,0,7,active.png
task-llso,arousal,cold_left,NA,1667975,complete,123,407,1,0,7,passive.png
task-llso,arousal,cold_left,NA,1667975,complete,123,1229,2,1,7,passive.png
task-llso,arousal,cold_left,NA,1667975,complete,123,1100,NA,0,7,passive.png
task-llso,arousal,cold_left,NA,1667975,complete,124,459,1,1,7,passive.png
task-llso,arousal,cold_left,NA,1667975,complete,124,1101,NA,0,7,passive.png
task-llso,arousal,cold_left,NA,1667975,complete,125,914,1,1,7,cold.png
task-llso,arousal,cold_left,NA,1667975,complete,125,1100,NA,0,7,cold.png
task-llso,arousal,cold_left,NA,1667975,complete,126,461,1,1,7,cold.png
task-llso,arousal,cold_left,NA,1667975,complete,126,1100,NA,0,7,cold.png
task-llso,arousal,cold_left,NA,1667975,complete,127,875,1,1,7,passive.png
task-llso,arousal,cold_left,NA,1667975,complete,127,1100,NA,0,7,passive.png
task-llso,arousal,cold_left,NA,1667975,complete,128,907,1,1,7,passive.png
task-llso,arousal,cold_left,NA,1667975,complete,128,1100,NA,0,7,passive.png
task-llso,arousal,cold_left,NA,1667975,complete,129,819,1,1,7,hot.png
task-llso,arousal,cold_left,NA,1667975,complete,129,1100,NA,0,7,hot.png
task-llso,arousal,cold_left,NA,1667975,complete,130,787,1,1,7,active.png
task-llso,arousal,cold_left,NA,1667975,complete,130,1101,NA,0,7,active.png
task-llso,arousal,cold_left,NA,1667975,complete,131,771,1,1,7,active.png
task-llso,arousal,cold_left,NA,1667975,complete,131,1101,NA,0,7,active.png
task-llso,arousal,cold_left,NA,1667975,complete,132,769,1,1,7,hot.png
task-llso,arousal,cold_left,NA,1667975,complete,132,1101,NA,0,7,hot.png
task-llso,arousal,cold_left,NA,1667975,complete,133,437,1,1,7,hot.png
task-llso,arousal,cold_left,NA,1667975,complete,133,1101,NA,0,7,hot.png
task-llso,arousal,cold_left,NA,1667975,complete,134,612,1,1,7,cold.png
task-llso,arousal,cold_left,NA,1667975,complete,134,1100,NA,0,7,cold.png
task-llso,arousal,cold_left,NA,1667975,complete,135,877,1,1,7,passive.png
task-llso,arousal,cold_left,NA,1667975,complete,135,1100,NA,0,7,passive.png
task-llso,arousal,cold_left,NA,1667975,complete,136,969,1,1,7,active.png
task-llso,arousal,cold_left,NA,1667975,complete,136,1101,NA,0,7,active.png
task-llso,arousal,cold_left,NA,1667975,complete,137,851,1,1,7,hot.png
task-llso,arousal,cold_left,NA,1667975,complete,137,1100,NA,0,7,hot.png
task-llso,arousal,cold_left,NA,1667975,complete,138,479,1,1,7,hot.png
task-llso,arousal,cold_left,NA,1667975,complete,138,1100,NA,0,7,hot.png
task-llso,arousal,cold_left,NA,1667975,complete,139,568,1,1,7,hot.png
task-llso,arousal,cold_left,NA,1667975,complete,139,1100,NA,0,7,hot.png
task-llso,arousal,cold_left,NA,1667975,complete,140,896,1,1,7,active.png
task-llso,arousal,cold_left,NA,1667975,complete,140,1100,NA,0,7,active.png
task-llso,arousal,cold_left,NA,1667975,complete,141,730,1,1,7,passive.png
task-llso,arousal,cold_left,NA,1667975,complete,141,1100,NA,0,7,passive.png
task-llso,arousal,cold_left,NA,1667975,complete,142,688,1,1,7,active.png
task-llso,arousal,cold_left,NA,1667975,complete,142,1100,NA,0,7,active.png
task-llso,arousal,cold_left,NA,1667975,complete,143,1086,1,1,7,passive.png
task-llso,arousal,cold_left,NA,1667975,complete,143,1101,NA,0,7,passive.png
task-llso,arousal,cold_left,NA,1667975,complete,144,735,1,1,7,hot.png
task-llso,arousal,cold_left,NA,1667975,complete,144,1100,NA,0,7,hot.png
task-llso,arousal,cold_left,NA,1667975,complete,145,741,1,1,7,cold.png
task-llso,arousal,cold_left,NA,1667975,complete,145,1101,NA,0,7,cold.png
task-llso,arousal,cold_left,NA,1667975,complete,146,720,1,1,7,passive.png
task-llso,arousal,cold_left,NA,1667975,complete,146,1101,NA,0,7,passive.png
task-llso,arousal,cold_left,NA,1667975,complete,147,835,1,1,7,hot.png
task-llso,arousal,cold_left,NA,1667975,complete,147,1100,NA,0,7,hot.png
task-llso,arousal,cold_left,NA,1667975,complete,148,776,1,1,7,passive.png
task-llso,arousal,cold_left,NA,1667975,complete,148,1100,NA,0,7,passive.png
task-llso,arousal,cold_left,NA,1667975,complete,149,510,1,1,7,active.png
task-llso,arousal,cold_left,NA,1667975,complete,149,1100,NA,0,7,active.png
task-llso,arousal,cold_left,NA,1667975,complete,150,818,1,1,7,cold.png
task-llso,arousal,cold_left,NA,1667975,complete,150,1100,NA,0,7,cold.png
task-llso,arousal,cold_left,NA,1667975,complete,151,423,1,1,7,cold.png
task-llso,arousal,cold_left,NA,1667975,complete,151,1100,NA,0,7,cold.png
task-llso,arousal,cold_left,NA,1667975,complete,152,763,1,1,7,active.png
task-llso,arousal,cold_left,NA,1667975,complete,152,1100,NA,0,7,active.png
task-llso,arousal,cold_left,NA,1667975,complete,153,494,1,1,7,cold.png
task-llso,arousal,cold_left,NA,1667975,complete,153,1100,NA,0,7,cold.png
task-llso,arousal,cold_left,NA,1667975,complete,154,492,1,1,7,hot.png
task-llso,arousal,cold_left,NA,1667975,complete,154,1100,NA,0,7,hot.png
task-llso,arousal,cold_left,NA,1667975,complete,155,410,1,1,7,hot.png
task-llso,arousal,cold_left,NA,1667975,complete,155,1100,NA,0,7,hot.png
task-llso,arousal,cold_left,NA,1667975,complete,156,503,1,1,7,cold.png
task-llso,arousal,cold_left,NA,1667975,complete,156,1100,NA,0,7,cold.png
task-llso,arousal,cold_left,NA,1667975,complete,157,340,1,1,7,cold.png
task-llso,arousal,cold_left,NA,1667975,complete,157,1100,NA,0,7,cold.png
task-llso,arousal,cold_left,NA,1667975,complete,158,723,1,1,7,active.png
task-llso,arousal,cold_left,NA,1667975,complete,158,1100,NA,0,7,active.png
task-llso,arousal,cold_left,NA,1667975,complete,159,606,1,1,7,hot.png
task-llso,arousal,cold_left,NA,1667975,complete,159,1100,NA,0,7,hot.png
task-llso,arousal,cold_left,NA,1667975,complete,160,485,1,0,7,passive.png
task-llso,arousal,cold_left,NA,1667975,complete,160,978,2,1,7,passive.png
task-llso,arousal,cold_left,NA,1667975,complete,160,1100,NA,0,7,passive.png
task-llso,arousal,cold_left,NA,1667975,complete,161,588,1,1,7,cold.png
task-llso,arousal,cold_left,NA,1667975,complete,161,1101,NA,0,7,cold.png
task-llso,arousal,cold_left,NA,1667975,complete,162,758,1,1,7,hot.png
task-llso,arousal,cold_left,NA,1667975,complete,162,1101,NA,0,7,hot.png
task-llso,arousal,cold_left,NA,1667975,complete,END TASK,351329,NA,0,NA,
task-llso,arousal,cold_left,NA,1667993,complete,BEGIN TASK,,NA,0,NA,
task-llso,arousal,cold_left,NA,1667993,complete,1,8429,NA,0,NA,
task-llso,arousal,cold_left,NA,1667993,complete,1,700,NA,0,NA,
task-llso,arousal,cold_left,NA,1667993,complete,1,2012,1,1,1,active.png
task-llso,arousal,cold_left,NA,1667993,complete,1,1101,NA,0,1,active.png
task-llso,arousal,cold_left,NA,1667993,complete,2,634,1,1,1,passive.png
task-llso,arousal,cold_left,NA,1667993,complete,2,1102,NA,0,1,passive.png
task-llso,arousal,cold_left,NA,1667993,complete,3,1147,1,1,1,passive.png
task-llso,arousal,cold_left,NA,1667993,complete,3,1100,NA,0,1,passive.png
task-llso,arousal,cold_left,NA,1667993,complete,4,681,1,1,1,passive.png
task-llso,arousal,cold_left,NA,1667993,complete,4,1100,NA,0,1,passive.png
task-llso,arousal,cold_left,NA,1667993,complete,5,457,1,1,1,active.png
task-llso,arousal,cold_left,NA,1667993,complete,5,1094,NA,0,1,active.png
task-llso,arousal,cold_left,NA,1667993,complete,6,615,1,1,1,active.png
task-llso,arousal,cold_left,NA,1667993,complete,6,1100,NA,0,1,active.png
task-llso,arousal,cold_left,NA,1667993,complete,2,3589,NA,0,NA,
task-llso,arousal,cold_left,NA,1667993,complete,2,701,NA,0,NA,
task-llso,arousal,cold_left,NA,1667993,complete,7,526,1,1,2,cold.png
task-llso,arousal,cold_left,NA,1667993,complete,7,1101,NA,0,2,cold.png
task-llso,arousal,cold_left,NA,1667993,complete,8,466,1,1,2,hot.png
task-llso,arousal,cold_left,NA,1667993,complete,8,1101,NA,0,2,hot.png
task-llso,arousal,cold_left,NA,1667993,complete,9,504,1,1,2,cold.png
task-llso,arousal,cold_left,NA,1667993,complete,9,1106,NA,0,2,cold.png
task-llso,arousal,cold_left,NA,1667993,complete,10,441,1,1,2,hot.png
task-llso,arousal,cold_left,NA,1667993,complete,10,1100,NA,0,2,hot.png
task-llso,arousal,cold_left,NA,1667993,complete,11,384,1,1,2,hot.png
task-llso,arousal,cold_left,NA,1667993,complete,11,1100,NA,0,2,hot.png
task-llso,arousal,cold_left,NA,1667993,complete,12,333,1,1,2,cold.png
task-llso,arousal,cold_left,NA,1667993,complete,12,1105,NA,0,2,cold.png
task-llso,arousal,cold_left,NA,1667993,complete,3,4008,NA,0,NA,
task-llso,arousal,cold_left,NA,1667993,complete,3,705,NA,0,NA,
task-llso,arousal,cold_left,NA,1667993,complete,13,723,1,1,3,cold.png
task-llso,arousal,cold_left,NA,1667993,complete,13,1101,NA,0,3,cold.png
task-llso,arousal,cold_left,NA,1667993,complete,14,594,1,1,3,hot.png
task-llso,arousal,cold_left,NA,1667993,complete,14,1101,NA,0,3,hot.png
task-llso,arousal,cold_left,NA,1667993,complete,15,798,1,1,3,passive.png
task-llso,arousal,cold_left,NA,1667993,complete,15,1101,NA,0,3,passive.png
task-llso,arousal,cold_left,NA,1667993,complete,16,653,1,1,3,active.png
task-llso,arousal,cold_left,NA,1667993,complete,16,1101,NA,0,3,active.png
task-llso,arousal,cold_left,NA,1667993,complete,17,913,1,1,3,hot.png
task-llso,arousal,cold_left,NA,1667993,complete,17,1101,NA,0,3,hot.png
task-llso,arousal,cold_left,NA,1667993,complete,18,572,1,1,3,passive.png
task-llso,arousal,cold_left,NA,1667993,complete,18,1104,NA,0,3,passive.png
task-llso,arousal,cold_left,NA,1667993,complete,19,618,1,1,3,active.png
task-llso,arousal,cold_left,NA,1667993,complete,19,1101,NA,0,3,active.png
task-llso,arousal,cold_left,NA,1667993,complete,20,774,1,1,3,cold.png
task-llso,arousal,cold_left,NA,1667993,complete,20,1101,NA,0,3,cold.png
task-llso,arousal,cold_left,NA,1667993,complete,21,667,1,1,3,cold.png
task-llso,arousal,cold_left,NA,1667993,complete,21,1100,NA,0,3,cold.png
task-llso,arousal,cold_left,NA,1667993,complete,22,578,1,1,3,passive.png
task-llso,arousal,cold_left,NA,1667993,complete,22,1100,NA,0,3,passive.png
task-llso,arousal,cold_left,NA,1667993,complete,23,537,1,1,3,cold.png
task-llso,arousal,cold_left,NA,1667993,complete,23,1100,NA,0,3,cold.png
task-llso,arousal,cold_left,NA,1667993,complete,24,471,1,0,3,passive.png
task-llso,arousal,cold_left,NA,1667993,complete,24,1732,2,1,3,passive.png
task-llso,arousal,cold_left,NA,1667993,complete,24,1100,NA,0,3,passive.png
task-llso,arousal,cold_left,NA,1667993,complete,25,673,1,1,3,hot.png
task-llso,arousal,cold_left,NA,1667993,complete,25,1102,NA,0,3,hot.png
task-llso,arousal,cold_left,NA,1667993,complete,26,453,1,1,3,hot.png
task-llso,arousal,cold_left,NA,1667993,complete,26,1099,NA,0,3,hot.png
task-llso,arousal,cold_left,NA,1667993,complete,27,502,1,1,3,active.png
task-llso,arousal,cold_left,NA,1667993,complete,27,1102,NA,0,3,active.png
task-llso,arousal,cold_left,NA,1667993,complete,28,400,1,1,3,active.png
task-llso,arousal,cold_left,NA,1667993,complete,28,1100,NA,0,3,active.png
task-llso,arousal,cold_left,NA,1667993,complete,4,1886,NA,0,NA,
task-llso,arousal,cold_left,NA,1667993,complete,4,700,NA,0,NA,
task-llso,arousal,cold_left,NA,1667993,complete,29,612,1,1,4,passive.png
task-llso,arousal,cold_left,NA,1667993,complete,29,1100,NA,0,4,passive.png
task-llso,arousal,cold_left,NA,1667993,complete,30,466,1,1,4,hot.png
task-llso,arousal,cold_left,NA,1667993,complete,30,1100,NA,0,4,hot.png
task-llso,arousal,cold_left,NA,1667993,complete,31,464,1,1,4,hot.png
task-llso,arousal,cold_left,NA,1667993,complete,31,1104,NA,0,4,hot.png
task-llso,arousal,cold_left,NA,1667993,complete,32,462,1,1,4,hot.png
task-llso,arousal,cold_left,NA,1667993,complete,32,1100,NA,0,4,hot.png
task-llso,arousal,cold_left,NA,1667993,complete,33,689,1,1,4,active.png
task-llso,arousal,cold_left,NA,1667993,complete,33,1102,NA,0,4,active.png
task-llso,arousal,cold_left,NA,1667993,complete,34,578,1,1,4,passive.png
task-llso,arousal,cold_left,NA,1667993,complete,34,1104,NA,0,4,passive.png
task-llso,arousal,cold_left,NA,1667993,complete,35,1441,1,1,4,active.png
task-llso,arousal,cold_left,NA,1667993,complete,35,1101,NA,0,4,active.png
task-llso,arousal,cold_left,NA,1667993,complete,36,578,1,1,4,passive.png
task-llso,arousal,cold_left,NA,1667993,complete,36,1105,NA,0,4,passive.png
task-llso,arousal,cold_left,NA,1667993,complete,37,592,1,1,4,passive.png
task-llso,arousal,cold_left,NA,1667993,complete,37,1100,NA,0,4,passive.png
task-llso,arousal,cold_left,NA,1667993,complete,38,721,1,1,4,hot.png
task-llso,arousal,cold_left,NA,1667993,complete,38,1101,NA,0,4,hot.png
task-llso,arousal,cold_left,NA,1667993,complete,39,488,1,1,4,cold.png
task-llso,arousal,cold_left,NA,1667993,complete,39,1106,NA,0,4,cold.png
task-llso,arousal,cold_left,NA,1667993,complete,40,525,1,1,4,cold.png
task-llso,arousal,cold_left,NA,1667993,complete,40,1101,NA,0,4,cold.png
task-llso,arousal,cold_left,NA,1667993,complete,41,462,1,1,4,cold.png
task-llso,arousal,cold_left,NA,1667993,complete,41,1100,NA,0,4,cold.png
task-llso,arousal,cold_left,NA,1667993,complete,42,492,1,1,4,cold.png
task-llso,arousal,cold_left,NA,1667993,complete,42,1101,NA,0,4,cold.png
task-llso,arousal,cold_left,NA,1667993,complete,43,319,1,1,4,cold.png
task-llso,arousal,cold_left,NA,1667993,complete,43,1100,NA,0,4,cold.png
task-llso,arousal,cold_left,NA,1667993,complete,44,317,1,1,4,cold.png
task-llso,arousal,cold_left,NA,1667993,complete,44,1100,NA,0,4,cold.png
task-llso,arousal,cold_left,NA,1667993,complete,45,725,1,1,4,passive.png
task-llso,arousal,cold_left,NA,1667993,complete,45,1101,NA,0,4,passive.png
task-llso,arousal,cold_left,NA,1667993,complete,46,484,1,0,4,hot.png
task-llso,arousal,cold_left,NA,1667993,complete,46,1236,2,1,4,hot.png
task-llso,arousal,cold_left,NA,1667993,complete,46,1101,NA,0,4,hot.png
task-llso,arousal,cold_left,NA,1667993,complete,47,592,1,1,4,cold.png
task-llso,arousal,cold_left,NA,1667993,complete,47,1101,NA,0,4,cold.png
task-llso,arousal,cold_left,NA,1667993,complete,48,667,1,1,4,passive.png
task-llso,arousal,cold_left,NA,1667993,complete,48,1100,NA,0,4,passive.png
task-llso,arousal,cold_left,NA,1667993,complete,49,518,1,1,4,active.png
task-llso,arousal,cold_left,NA,1667993,complete,49,1100,NA,0,4,active.png
task-llso,arousal,cold_left,NA,1667993,complete,50,556,1,1,4,passive.png
task-llso,arousal,cold_left,NA,1667993,complete,50,1102,NA,0,4,passive.png
task-llso,arousal,cold_left,NA,1667993,complete,51,570,1,1,4,active.png
task-llso,arousal,cold_left,NA,1667993,complete,51,1104,NA,0,4,active.png
task-llso,arousal,cold_left,NA,1667993,complete,52,666,1,1,4,cold.png
task-llso,arousal,cold_left,NA,1667993,complete,52,1101,NA,0,4,cold.png
task-llso,arousal,cold_left,NA,1667993,complete,53,359,1,1,4,cold.png
task-llso,arousal,cold_left,NA,1667993,complete,53,1100,NA,0,4,cold.png
task-llso,arousal,cold_left,NA,1667993,complete,54,414,1,1,4,cold.png
task-llso,arousal,cold_left,NA,1667993,complete,54,1107,NA,0,4,cold.png
task-llso,arousal,cold_left,NA,1667993,complete,55,663,1,1,4,passive.png
task-llso,arousal,cold_left,NA,1667993,complete,55,1100,NA,0,4,passive.png
task-llso,arousal,cold_left,NA,1667993,complete,56,491,1,1,4,passive.png
task-llso,arousal,cold_left,NA,1667993,complete,56,1101,NA,0,4,passive.png
task-llso,arousal,cold_left,NA,1667993,complete,57,481,1,1,4,active.png
task-llso,arousal,cold_left,NA,1667993,complete,57,1101,NA,0,4,active.png
task-llso,arousal,cold_left,NA,1667993,complete,58,404,1,1,4,active.png
task-llso,arousal,cold_left,NA,1667993,complete,58,1101,NA,0,4,active.png
task-llso,arousal,cold_left,NA,1667993,complete,59,675,1,1,4,hot.png
task-llso,arousal,cold_left,NA,1667993,complete,59,1102,NA,0,4,hot.png
task-llso,arousal,cold_left,NA,1667993,complete,60,411,1,1,4,hot.png
task-llso,arousal,cold_left,NA,1667993,complete,60,1101,NA,0,4,hot.png
task-llso,arousal,cold_left,NA,1667993,complete,61,779,1,1,4,passive.png
task-llso,arousal,cold_left,NA,1667993,complete,61,1101,NA,0,4,passive.png
task-llso,arousal,cold_left,NA,1667993,complete,62,550,1,1,4,cold.png
task-llso,arousal,cold_left,NA,1667993,complete,62,1100,NA,0,4,cold.png
task-llso,arousal,cold_left,NA,1667993,complete,63,490,1,1,4,active.png
task-llso,arousal,cold_left,NA,1667993,complete,63,1102,NA,0,4,active.png
task-llso,arousal,cold_left,NA,1667993,complete,64,554,1,1,4,passive.png
task-llso,arousal,cold_left,NA,1667993,complete,64,1101,NA,0,4,passive.png
task-llso,arousal,cold_left,NA,1667993,complete,65,536,1,1,4,hot.png
task-llso,arousal,cold_left,NA,1667993,complete,65,1100,NA,0,4,hot.png
task-llso,arousal,cold_left,NA,1667993,complete,66,487,1,0,4,active.png
task-llso,arousal,cold_left,NA,1667993,complete,66,879,2,1,4,active.png
task-llso,arousal,cold_left,NA,1667993,complete,66,1105,NA,0,4,active.png
task-llso,arousal,cold_left,NA,1667993,complete,67,776,1,1,4,hot.png
task-llso,arousal,cold_left,NA,1667993,complete,67,1101,NA,0,4,hot.png
task-llso,arousal,cold_left,NA,1667993,complete,68,539,1,1,4,active.png
task-llso,arousal,cold_left,NA,1667993,complete,68,1102,NA,0,4,active.png
task-llso,arousal,cold_left,NA,1667993,complete,69,574,1,1,4,active.png
task-llso,arousal,cold_left,NA,1667993,complete,69,1105,NA,0,4,active.png
task-llso,arousal,cold_left,NA,1667993,complete,70,457,1,1,4,active.png
task-llso,arousal,cold_left,NA,1667993,complete,70,1101,NA,0,4,active.png
task-llso,arousal,cold_left,NA,1667993,complete,71,537,1,1,4,passive.png
task-llso,arousal,cold_left,NA,1667993,complete,71,1101,NA,0,4,passive.png
task-llso,arousal,cold_left,NA,1667993,complete,72,581,1,1,4,hot.png
task-llso,arousal,cold_left,NA,1667993,complete,72,1104,NA,0,4,hot.png
task-llso,arousal,cold_left,NA,1667993,complete,73,747,1,1,4,cold.png
task-llso,arousal,cold_left,NA,1667993,complete,73,1101,NA,0,4,cold.png
task-llso,arousal,cold_left,NA,1667993,complete,74,516,1,1,4,hot.png
task-llso,arousal,cold_left,NA,1667993,complete,74,1101,NA,0,4,hot.png
task-llso,arousal,cold_left,NA,1667993,complete,75,666,1,1,4,hot.png
task-llso,arousal,cold_left,NA,1667993,complete,75,1105,NA,0,4,hot.png
task-llso,arousal,cold_left,NA,1667993,complete,76,557,1,1,4,active.png
task-llso,arousal,cold_left,NA,1667993,complete,76,1101,NA,0,4,active.png
task-llso,arousal,cold_left,NA,1667993,complete,5,3185,NA,0,NA,
task-llso,arousal,cold_left,NA,1667993,complete,5,701,NA,0,NA,
task-llso,arousal,cold_left,NA,1667993,complete,77,603,1,1,5,passive.png
task-llso,arousal,cold_left,NA,1667993,complete,77,1101,NA,0,5,passive.png
task-llso,arousal,cold_left,NA,1667993,complete,78,413,1,1,5,passive.png
task-llso,arousal,cold_left,NA,1667993,complete,78,1101,NA,0,5,passive.png
task-llso,arousal,cold_left,NA,1667993,complete,79,403,1,1,5,passive.png
task-llso,arousal,cold_left,NA,1667993,complete,79,1100,NA,0,5,passive.png
task-llso,arousal,cold_left,NA,1667993,complete,80,531,1,1,5,active.png
task-llso,arousal,cold_left,NA,1667993,complete,80,1101,NA,0,5,active.png
task-llso,arousal,cold_left,NA,1667993,complete,81,423,1,1,5,active.png
task-llso,arousal,cold_left,NA,1667993,complete,81,1102,NA,0,5,active.png
task-llso,arousal,cold_left,NA,1667993,complete,82,433,1,1,5,active.png
task-llso,arousal,cold_left,NA,1667993,complete,82,1103,NA,0,5,active.png
task-llso,arousal,cold_left,NA,1667993,complete,6,4412,NA,0,NA,
task-llso,arousal,cold_left,NA,1667993,complete,6,701,NA,0,NA,
task-llso,arousal,cold_left,NA,1667993,complete,83,696,1,1,6,passive.png
task-llso,arousal,cold_left,NA,1667993,complete,83,1100,NA,0,6,passive.png
task-llso,arousal,cold_left,NA,1667993,complete,84,518,1,1,6,active.png
task-llso,arousal,cold_left,NA,1667993,complete,84,1101,NA,0,6,active.png
task-llso,arousal,cold_left,NA,1667993,complete,85,871,1,1,6,active.png
task-llso,arousal,cold_left,NA,1667993,complete,85,1102,NA,0,6,active.png
task-llso,arousal,cold_left,NA,1667993,complete,86,545,1,1,6,active.png
task-llso,arousal,cold_left,NA,1667993,complete,86,1100,NA,0,6,active.png
task-llso,arousal,cold_left,NA,1667993,complete,87,673,1,1,6,hot.png
task-llso,arousal,cold_left,NA,1667993,complete,87,1102,NA,0,6,hot.png
task-llso,arousal,cold_left,NA,1667993,complete,88,481,1,1,6,hot.png
task-llso,arousal,cold_left,NA,1667993,complete,88,1101,NA,0,6,hot.png
task-llso,arousal,cold_left,NA,1667993,complete,89,446,1,1,6,cold.png
task-llso,arousal,cold_left,NA,1667993,complete,89,1101,NA,0,6,cold.png
task-llso,arousal,cold_left,NA,1667993,complete,90,614,1,1,6,hot.png
task-llso,arousal,cold_left,NA,1667993,complete,90,1099,NA,0,6,hot.png
task-llso,arousal,cold_left,NA,1667993,complete,91,462,1,1,6,hot.png
task-llso,arousal,cold_left,NA,1667993,complete,91,1101,NA,0,6,hot.png
task-llso,arousal,cold_left,NA,1667993,complete,92,385,1,1,6,hot.png
task-llso,arousal,cold_left,NA,1667993,complete,92,1101,NA,0,6,hot.png
task-llso,arousal,cold_left,NA,1667993,complete,93,871,1,1,6,cold.png
task-llso,arousal,cold_left,NA,1667993,complete,93,1101,NA,0,6,cold.png
task-llso,arousal,cold_left,NA,1667993,complete,94,447,1,1,6,cold.png
task-llso,arousal,cold_left,NA,1667993,complete,94,1104,NA,0,6,cold.png
task-llso,arousal,cold_left,NA,1667993,complete,95,918,1,1,6,hot.png
task-llso,arousal,cold_left,NA,1667993,complete,95,1100,NA,0,6,hot.png
task-llso,arousal,cold_left,NA,1667993,complete,96,543,1,1,6,passive.png
task-llso,arousal,cold_left,NA,1667993,complete,96,1100,NA,0,6,passive.png
task-llso,arousal,cold_left,NA,1667993,complete,97,448,1,1,6,active.png
task-llso,arousal,cold_left,NA,1667993,complete,97,1101,NA,0,6,active.png
task-llso,arousal,cold_left,NA,1667993,complete,98,430,1,1,6,cold.png
task-llso,arousal,cold_left,NA,1667993,complete,98,1101,NA,0,6,cold.png
task-llso,arousal,cold_left,NA,1667993,complete,99,634,1,1,6,hot.png
task-llso,arousal,cold_left,NA,1667993,complete,99,1100,NA,0,6,hot.png
task-llso,arousal,cold_left,NA,1667993,complete,100,602,1,1,6,cold.png
task-llso,arousal,cold_left,NA,1667993,complete,100,1101,NA,0,6,cold.png
task-llso,arousal,cold_left,NA,1667993,complete,101,732,1,1,6,active.png
task-llso,arousal,cold_left,NA,1667993,complete,101,1101,NA,0,6,active.png
task-llso,arousal,cold_left,NA,1667993,complete,102,638,1,1,6,cold.png
task-llso,arousal,cold_left,NA,1667993,complete,102,1101,NA,0,6,cold.png
task-llso,arousal,cold_left,NA,1667993,complete,103,548,1,1,6,cold.png
task-llso,arousal,cold_left,NA,1667993,complete,103,1101,NA,0,6,cold.png
task-llso,arousal,cold_left,NA,1667993,complete,104,534,1,0,6,active.png
task-llso,arousal,cold_left,NA,1667993,complete,104,1117,2,1,6,active.png
task-llso,arousal,cold_left,NA,1667993,complete,104,1100,NA,0,6,active.png
task-llso,arousal,cold_left,NA,1667993,complete,105,729,1,1,6,hot.png
task-llso,arousal,cold_left,NA,1667993,complete,105,1094,NA,0,6,hot.png
task-llso,arousal,cold_left,NA,1667993,complete,106,452,1,1,6,passive.png
task-llso,arousal,cold_left,NA,1667993,complete,106,1100,NA,0,6,passive.png
task-llso,arousal,cold_left,NA,1667993,complete,107,386,1,1,6,passive.png
task-llso,arousal,cold_left,NA,1667993,complete,107,1100,NA,0,6,passive.png
task-llso,arousal,cold_left,NA,1667993,complete,108,408,1,1,6,cold.png
task-llso,arousal,cold_left,NA,1667993,complete,108,1101,NA,0,6,cold.png
task-llso,arousal,cold_left,NA,1667993,complete,109,626,1,0,6,passive.png
task-llso,arousal,cold_left,NA,1667993,complete,109,1213,2,1,6,passive.png
task-llso,arousal,cold_left,NA,1667993,complete,109,1100,NA,0,6,passive.png
task-llso,arousal,cold_left,NA,1667993,complete,110,750,1,1,6,passive.png
task-llso,arousal,cold_left,NA,1667993,complete,110,1102,NA,0,6,passive.png
task-llso,arousal,cold_left,NA,1667993,complete,111,511,1,1,6,passive.png
task-llso,arousal,cold_left,NA,1667993,complete,111,1100,NA,0,6,passive.png
task-llso,arousal,cold_left,NA,1667993,complete,112,559,1,1,6,active.png
task-llso,arousal,cold_left,NA,1667993,complete,112,1101,NA,0,6,active.png
task-llso,arousal,cold_left,NA,1667993,complete,113,392,1,1,6,active.png
task-llso,arousal,cold_left,NA,1667993,complete,113,1100,NA,0,6,active.png
task-llso,arousal,cold_left,NA,1667993,complete,114,496,1,0,6,passive.png
task-llso,arousal,cold_left,NA,1667993,complete,114,794,2,1,6,passive.png
task-llso,arousal,cold_left,NA,1667993,complete,114,1104,NA,0,6,passive.png
task-llso,arousal,cold_left,NA,1667993,complete,7,3169,NA,0,NA,
task-llso,arousal,cold_left,NA,1667993,complete,7,700,NA,0,NA,
task-llso,arousal,cold_left,NA,1667993,complete,115,782,1,1,7,active.png
task-llso,arousal,cold_left,NA,1667993,complete,115,1101,NA,0,7,active.png
task-llso,arousal,cold_left,NA,1667993,complete,116,685,1,1,7,passive.png
task-llso,arousal,cold_left,NA,1667993,complete,116,1099,NA,0,7,passive.png
task-llso,arousal,cold_left,NA,1667993,complete,117,459,1,1,7,hot.png
task-llso,arousal,cold_left,NA,1667993,complete,117,1101,NA,0,7,hot.png
task-llso,arousal,cold_left,NA,1667993,complete,118,758,1,0,7,passive.png
task-llso,arousal,cold_left,NA,1667993,complete,118,1490,2,1,7,passive.png
task-llso,arousal,cold_left,NA,1667993,complete,118,1102,NA,0,7,passive.png
task-llso,arousal,cold_left,NA,1667993,complete,119,596,1,1,7,active.png
task-llso,arousal,cold_left,NA,1667993,complete,119,1101,NA,0,7,active.png
task-llso,arousal,cold_left,NA,1667993,complete,120,650,1,1,7,cold.png
task-llso,arousal,cold_left,NA,1667993,complete,120,1100,NA,0,7,cold.png
task-llso,arousal,cold_left,NA,1667993,complete,121,561,1,1,7,cold.png
task-llso,arousal,cold_left,NA,1667993,complete,121,1101,NA,0,7,cold.png
task-llso,arousal,cold_left,NA,1667993,complete,122,515,1,1,7,hot.png
task-llso,arousal,cold_left,NA,1667993,complete,122,1100,NA,0,7,hot.png
