version,dimension,key1,key2,pid,pstatus,trial,rt,attempt,correct,block,stimulus
task-w6i6,valence,NA,cold_left,1667937,complete,BEGIN TASK,,NA,0,NA,
task-w6i6,valence,NA,cold_left,1667937,complete,1,4423.255,NA,0,NA,
task-w6i6,valence,NA,cold_left,1667937,complete,1,699.761,NA,0,NA,
task-w6i6,valence,NA,cold_left,1667937,complete,1,1187.62,1,1,1,happy.png
task-w6i6,valence,NA,cold_left,1667937,complete,1,1099.625,NA,0,1,happy.png
task-w6i6,valence,NA,cold_left,1667937,complete,2,585.265,1,1,1,happy.png
task-w6i6,valence,NA,cold_left,1667937,complete,2,1099.66,NA,0,1,happy.png
task-w6i6,valence,NA,cold_left,1667937,complete,3,572.87,1,1,1,unhappy.png
task-w6i6,valence,NA,cold_left,1667937,complete,3,1099.608,NA,0,1,unhappy.png
task-w6i6,valence,NA,cold_left,1667937,complete,4,474.12,1,1,1,happy.png
task-w6i6,valence,NA,cold_left,1667937,complete,4,1099.642,NA,0,1,happy.png
task-w6i6,valence,NA,cold_left,1667937,complete,5,403.325,1,1,1,unhappy.png
task-w6i6,valence,NA,cold_left,1667937,complete,5,1099.626,NA,0,1,unhappy.png
task-w6i6,valence,NA,cold_left,1667937,complete,6,571.785,1,1,1,unhappy.png
task-w6i6,valence,NA,cold_left,1667937,complete,6,1099.581,NA,0,1,unhappy.png
task-w6i6,valence,NA,cold_left,1667937,complete,2,2222.215,NA,0,NA,
task-w6i6,valence,NA,cold_left,1667937,complete,2,700.511,NA,0,NA,
task-w6i6,valence,NA,cold_left,1667937,complete,7,408.905,1,1,2,cold.png
task-w6i6,valence,NA,cold_left,1667937,complete,7,1099.6,NA,0,2,cold.png
task-w6i6,valence,NA,cold_left,1667937,complete,8,241.53,1,1,2,hot.png
task-w6i6,valence,NA,cold_left,1667937,complete,8,1099.621,NA,0,2,hot.png
task-w6i6,valence,NA,cold_left,1667937,complete,9,300.865,1,1,2,cold.png
task-w6i6,valence,NA,cold_left,1667937,complete,9,1099.623,NA,0,2,cold.png
task-w6i6,valence,NA,cold_left,1667937,complete,10,230.015,1,1,2,hot.png
task-w6i6,valence,NA,cold_left,1667937,complete,10,1549.439,NA,0,2,hot.png
task-w6i6,valence,NA,cold_left,1667937,complete,11,434.355,1,1,2,hot.png
task-w6i6,valence,NA,cold_left,1667937,complete,11,1099.584,NA,0,2,hot.png
task-w6i6,valence,NA,cold_left,1667937,complete,12,429.135,1,1,2,cold.png
task-w6i6,valence,NA,cold_left,1667937,complete,12,1099.602,NA,0,2,cold.png
task-w6i6,valence,NA,cold_left,1667937,complete,3,2307.185,NA,0,NA,
task-w6i6,valence,NA,cold_left,1667937,complete,3,699.739,NA,0,NA,
task-w6i6,valence,NA,cold_left,1667937,complete,13,451.395,1,0,6,unhappy.png
task-w6i6,valence,NA,cold_left,1667937,complete,13,2323.04,2,1,6,unhappy.png
task-w6i6,valence,NA,cold_left,1667937,complete,13,1099.659,NA,0,6,unhappy.png
task-w6i6,valence,NA,cold_left,1667937,complete,14,878.52,1,1,6,happy.png
task-w6i6,valence,NA,cold_left,1667937,complete,14,1099.653,NA,0,6,happy.png
task-w6i6,valence,NA,cold_left,1667937,complete,15,839.93,1,0,6,cold.png
task-w6i6,valence,NA,cold_left,1667937,complete,15,1427.49,2,1,6,cold.png
task-w6i6,valence,NA,cold_left,1667937,complete,15,1100.55,NA,0,6,cold.png
task-w6i6,valence,NA,cold_left,1667937,complete,16,1021.965,1,1,6,happy.png
task-w6i6,valence,NA,cold_left,1667937,complete,16,1099.628,NA,0,6,happy.png
task-w6i6,valence,NA,cold_left,1667937,complete,17,675.035,1,1,6,happy.png
task-w6i6,valence,NA,cold_left,1667937,complete,17,1099.624,NA,0,6,happy.png
task-w6i6,valence,NA,cold_left,1667937,complete,18,795.58,1,0,6,hot.png
task-w6i6,valence,NA,cold_left,1667937,complete,18,3814.405,2,1,6,hot.png
task-w6i6,valence,NA,cold_left,1667937,complete,18,1099.609,NA,0,6,hot.png
task-w6i6,valence,NA,cold_left,1667937,complete,19,700.46,1,1,6,hot.png
task-w6i6,valence,NA,cold_left,1667937,complete,19,1099.618,NA,0,6,hot.png
task-w6i6,valence,NA,cold_left,1667937,complete,20,655.1,1,1,6,cold.png
task-w6i6,valence,NA,cold_left,1667937,complete,20,1099.633,NA,0,6,cold.png
task-w6i6,valence,NA,cold_left,1667937,complete,21,727.9,1,1,6,unhappy.png
task-w6i6,valence,NA,cold_left,1667937,complete,21,1099.63,NA,0,6,unhappy.png
task-w6i6,valence,NA,cold_left,1667937,complete,22,682.065,1,0,6,hot.png
task-w6i6,valence,NA,cold_left,1667937,complete,22,3626.385,2,1,6,hot.png
task-w6i6,valence,NA,cold_left,1667937,complete,22,1099.676,NA,0,6,hot.png
task-w6i6,valence,NA,cold_left,1667937,complete,23,741.315,1,1,6,cold.png
task-w6i6,valence,NA,cold_left,1667937,complete,23,1099.607,NA,0,6,cold.png
task-w6i6,valence,NA,cold_left,1667937,complete,24,763.12,1,1,6,hot.png
task-w6i6,valence,NA,cold_left,1667937,complete,24,1099.621,NA,0,6,hot.png
task-w6i6,valence,NA,cold_left,1667937,complete,25,615.36,1,1,6,hot.png
task-w6i6,valence,NA,cold_left,1667937,complete,25,1099.698,NA,0,6,hot.png
task-w6i6,valence,NA,cold_left,1667937,complete,26,697.045,1,1,6,unhappy.png
task-w6i6,valence,NA,cold_left,1667937,complete,26,1099.604,NA,0,6,unhappy.png
task-w6i6,valence,NA,cold_left,1667937,complete,27,487.2,1,1,6,cold.png
task-w6i6,valence,NA,cold_left,1667937,complete,27,1099.629,NA,0,6,cold.png
task-w6i6,valence,NA,cold_left,1667937,complete,28,676.065,1,1,6,unhappy.png
task-w6i6,valence,NA,cold_left,1667937,complete,28,1099.68,NA,0,6,unhappy.png
task-w6i6,valence,NA,cold_left,1667937,complete,29,530.265,1,1,6,cold.png
task-w6i6,valence,NA,cold_left,1667937,complete,29,1099.633,NA,0,6,cold.png
task-w6i6,valence,NA,cold_left,1667937,complete,30,457.185,1,1,6,cold.png
task-w6i6,valence,NA,cold_left,1667937,complete,30,1099.633,NA,0,6,cold.png
task-w6i6,valence,NA,cold_left,1667937,complete,31,444.855,1,1,6,unhappy.png
task-w6i6,valence,NA,cold_left,1667937,complete,31,1099.641,NA,0,6,unhappy.png
task-w6i6,valence,NA,cold_left,1667937,complete,32,380.28,1,1,6,unhappy.png
task-w6i6,valence,NA,cold_left,1667937,complete,32,1099.666,NA,0,6,unhappy.png
task-w6i6,valence,NA,cold_left,1667937,complete,33,542.285,1,1,6,unhappy.png
task-w6i6,valence,NA,cold_left,1667937,complete,33,1099.608,NA,0,6,unhappy.png
task-w6i6,valence,NA,cold_left,1667937,complete,34,401.99,1,1,6,happy.png
task-w6i6,valence,NA,cold_left,1667937,complete,34,1099.613,NA,0,6,happy.png
task-w6i6,valence,NA,cold_left,1667937,complete,35,375.425,1,1,6,unhappy.png
task-w6i6,valence,NA,cold_left,1667937,complete,35,1099.637,NA,0,6,unhappy.png
task-w6i6,valence,NA,cold_left,1667937,complete,36,405.335,1,1,6,happy.png
task-w6i6,valence,NA,cold_left,1667937,complete,36,1099.621,NA,0,6,happy.png
task-w6i6,valence,NA,cold_left,1667937,complete,37,475.87,1,0,6,hot.png
task-w6i6,valence,NA,cold_left,1667937,complete,37,567.17,2,1,6,hot.png
task-w6i6,valence,NA,cold_left,1667937,complete,37,1099.62,NA,0,6,hot.png
task-w6i6,valence,NA,cold_left,1667937,complete,38,475.945,1,0,6,happy.png
task-w6i6,valence,NA,cold_left,1667937,complete,38,1505.975,2,1,6,happy.png
task-w6i6,valence,NA,cold_left,1667937,complete,38,1099.618,NA,0,6,happy.png
task-w6i6,valence,NA,cold_left,1667937,complete,39,805.005,1,1,6,cold.png
task-w6i6,valence,NA,cold_left,1667937,complete,39,1098.55,NA,0,6,cold.png
task-w6i6,valence,NA,cold_left,1667937,complete,40,407.685,1,1,6,cold.png
task-w6i6,valence,NA,cold_left,1667937,complete,40,1099.621,NA,0,6,cold.png
task-w6i6,valence,NA,cold_left,1667937,complete,41,580.525,1,0,6,happy.png
task-w6i6,valence,NA,cold_left,1667937,complete,41,1586.33,2,1,6,happy.png
task-w6i6,valence,NA,cold_left,1667937,complete,41,1099.545,NA,0,6,happy.png
task-w6i6,valence,NA,cold_left,1667937,complete,42,487.85,1,1,6,happy.png
task-w6i6,valence,NA,cold_left,1667937,complete,42,1099.655,NA,0,6,happy.png
task-w6i6,valence,NA,cold_left,1667937,complete,43,575.54,1,1,6,hot.png
task-w6i6,valence,NA,cold_left,1667937,complete,43,1099.644,NA,0,6,hot.png
task-w6i6,valence,NA,cold_left,1667937,complete,44,367.155,1,1,6,hot.png
task-w6i6,valence,NA,cold_left,1667937,complete,44,1099.623,NA,0,6,hot.png
task-w6i6,valence,NA,cold_left,1667937,complete,4,5797.18,NA,0,NA,
task-w6i6,valence,NA,cold_left,1667937,complete,4,699.763,NA,0,NA,
task-w6i6,valence,NA,cold_left,1667937,complete,45,501.02,1,1,7,cold.png
task-w6i6,valence,NA,cold_left,1667937,complete,45,1099.574,NA,0,7,cold.png
task-w6i6,valence,NA,cold_left,1667937,complete,46,538.1,1,0,7,happy.png
task-w6i6,valence,NA,cold_left,1667937,complete,46,997.505,2,1,7,happy.png
task-w6i6,valence,NA,cold_left,1667937,complete,46,1099.622,NA,0,7,happy.png
task-w6i6,valence,NA,cold_left,1667937,complete,47,730.39,1,1,7,hot.png
task-w6i6,valence,NA,cold_left,1667937,complete,47,1099.487,NA,0,7,hot.png
task-w6i6,valence,NA,cold_left,1667937,complete,48,411.545,1,1,7,hot.png
task-w6i6,valence,NA,cold_left,1667937,complete,48,1099.583,NA,0,7,hot.png
task-w6i6,valence,NA,cold_left,1667937,complete,49,371.545,1,1,7,hot.png
task-w6i6,valence,NA,cold_left,1667937,complete,49,1098.369,NA,0,7,hot.png
task-w6i6,valence,NA,cold_left,1667937,complete,50,406.795,1,0,7,cold.png
task-w6i6,valence,NA,cold_left,1667937,complete,50,561.59,2,1,7,cold.png
task-w6i6,valence,NA,cold_left,1667937,complete,50,1099.626,NA,0,7,cold.png
task-w6i6,valence,NA,cold_left,1667937,complete,51,530.29,1,1,7,happy.png
task-w6i6,valence,NA,cold_left,1667937,complete,51,1099.69,NA,0,7,happy.png
task-w6i6,valence,NA,cold_left,1667937,complete,52,507.66,1,1,7,cold.png
task-w6i6,valence,NA,cold_left,1667937,complete,52,1099.698,NA,0,7,cold.png
task-w6i6,valence,NA,cold_left,1667937,complete,53,480.57,1,1,7,cold.png
task-w6i6,valence,NA,cold_left,1667937,complete,53,1099.637,NA,0,7,cold.png
task-w6i6,valence,NA,cold_left,1667937,complete,54,530.595,1,1,7,happy.png
task-w6i6,valence,NA,cold_left,1667937,complete,54,1099.608,NA,0,7,happy.png
task-w6i6,valence,NA,cold_left,1667937,complete,55,406.79,1,0,7,hot.png
task-w6i6,valence,NA,cold_left,1667937,complete,55,751.435,2,1,7,hot.png
task-w6i6,valence,NA,cold_left,1667937,complete,55,1099.659,NA,0,7,hot.png
task-w6i6,valence,NA,cold_left,1667937,complete,56,559.3,1,1,7,cold.png
task-w6i6,valence,NA,cold_left,1667937,complete,56,1099.618,NA,0,7,cold.png
task-w6i6,valence,NA,cold_left,1667937,complete,57,579.925,1,1,7,unhappy.png
task-w6i6,valence,NA,cold_left,1667937,complete,57,1099.629,NA,0,7,unhappy.png
task-w6i6,valence,NA,cold_left,1667937,complete,58,403.695,1,1,7,unhappy.png
task-w6i6,valence,NA,cold_left,1667937,complete,58,1099.637,NA,0,7,unhappy.png
task-w6i6,valence,NA,cold_left,1667937,complete,59,511.42,1,1,7,happy.png
task-w6i6,valence,NA,cold_left,1667937,complete,59,1099.588,NA,0,7,happy.png
task-w6i6,valence,NA,cold_left,1667937,complete,60,513.945,1,1,7,unhappy.png
task-w6i6,valence,NA,cold_left,1667937,complete,60,1099.586,NA,0,7,unhappy.png
task-w6i6,valence,NA,cold_left,1667937,complete,61,530.275,1,1,7,unhappy.png
task-w6i6,valence,NA,cold_left,1667937,complete,61,1099.604,NA,0,7,unhappy.png
task-w6i6,valence,NA,cold_left,1667937,complete,62,415.595,1,0,7,hot.png
task-w6i6,valence,NA,cold_left,1667937,complete,62,1723.22,2,1,7,hot.png
task-w6i6,valence,NA,cold_left,1667937,complete,62,1099.636,NA,0,7,hot.png
task-w6i6,valence,NA,cold_left,1667937,complete,63,669.71,1,1,7,happy.png
task-w6i6,valence,NA,cold_left,1667937,complete,63,1099.644,NA,0,7,happy.png
task-w6i6,valence,NA,cold_left,1667937,complete,64,671.53,1,1,7,happy.png
task-w6i6,valence,NA,cold_left,1667937,complete,64,1099.658,NA,0,7,happy.png
task-w6i6,valence,NA,cold_left,1667937,complete,65,528.745,1,1,7,cold.png
task-w6i6,valence,NA,cold_left,1667937,complete,65,1099.626,NA,0,7,cold.png
task-w6i6,valence,NA,cold_left,1667937,complete,66,404.09,1,1,7,hot.png
task-w6i6,valence,NA,cold_left,1667937,complete,66,1099.627,NA,0,7,hot.png
task-w6i6,valence,NA,cold_left,1667937,complete,67,463.22,1,1,7,unhappy.png
task-w6i6,valence,NA,cold_left,1667937,complete,67,1099.616,NA,0,7,unhappy.png
task-w6i6,valence,NA,cold_left,1667937,complete,68,419.785,1,1,7,unhappy.png
task-w6i6,valence,NA,cold_left,1667937,complete,68,1099.616,NA,0,7,unhappy.png
task-w6i6,valence,NA,cold_left,1667937,complete,69,467.94,1,1,7,happy.png
task-w6i6,valence,NA,cold_left,1667937,complete,69,1099.64,NA,0,7,happy.png
task-w6i6,valence,NA,cold_left,1667937,complete,70,528.21,1,1,7,unhappy.png
task-w6i6,valence,NA,cold_left,1667937,complete,70,1099.628,NA,0,7,unhappy.png
task-w6i6,valence,NA,cold_left,1667937,complete,71,506.5,1,1,7,unhappy.png
task-w6i6,valence,NA,cold_left,1667937,complete,71,1099.583,NA,0,7,unhappy.png
task-w6i6,valence,NA,cold_left,1667937,complete,72,608.47,1,1,7,hot.png
task-w6i6,valence,NA,cold_left,1667937,complete,72,1099.629,NA,0,7,hot.png
task-w6i6,valence,NA,cold_left,1667937,complete,73,511.1,1,1,7,unhappy.png
task-w6i6,valence,NA,cold_left,1667937,complete,73,1099.564,NA,0,7,unhappy.png
task-w6i6,valence,NA,cold_left,1667937,complete,74,350.5,1,1,7,cold.png
task-w6i6,valence,NA,cold_left,1667937,complete,74,1099.629,NA,0,7,cold.png
task-w6i6,valence,NA,cold_left,1667937,complete,75,420.8,1,1,7,hot.png
task-w6i6,valence,NA,cold_left,1667937,complete,75,1099.644,NA,0,7,hot.png
task-w6i6,valence,NA,cold_left,1667937,complete,76,704.895,1,0,7,happy.png
task-w6i6,valence,NA,cold_left,1667937,complete,76,765.545,2,1,7,happy.png
task-w6i6,valence,NA,cold_left,1667937,complete,76,1099.652,NA,0,7,happy.png
task-w6i6,valence,NA,cold_left,1667937,complete,77,475.325,1,1,7,cold.png
task-w6i6,valence,NA,cold_left,1667937,complete,77,1099.631,NA,0,7,cold.png
task-w6i6,valence,NA,cold_left,1667937,complete,78,592.68,1,1,7,hot.png
task-w6i6,valence,NA,cold_left,1667937,complete,78,1099.627,NA,0,7,hot.png
task-w6i6,valence,NA,cold_left,1667937,complete,79,496.225,1,1,7,hot.png
task-w6i6,valence,NA,cold_left,1667937,complete,79,1099.65,NA,0,7,hot.png
task-w6i6,valence,NA,cold_left,1667937,complete,80,477.88,1,0,7,happy.png
task-w6i6,valence,NA,cold_left,1667937,complete,80,1110.63,2,1,7,happy.png
task-w6i6,valence,NA,cold_left,1667937,complete,80,1099.782,NA,0,7,happy.png
task-w6i6,valence,NA,cold_left,1667937,complete,81,814.285,1,1,7,unhappy.png
task-w6i6,valence,NA,cold_left,1667937,complete,81,1099.664,NA,0,7,unhappy.png
task-w6i6,valence,NA,cold_left,1667937,complete,82,571.405,1,1,7,cold.png
task-w6i6,valence,NA,cold_left,1667937,complete,82,1099.637,NA,0,7,cold.png
task-w6i6,valence,NA,cold_left,1667937,complete,83,716.375,1,1,7,happy.png
task-w6i6,valence,NA,cold_left,1667937,complete,83,1099.631,NA,0,7,happy.png
task-w6i6,valence,NA,cold_left,1667937,complete,84,479.98,1,1,7,happy.png
task-w6i6,valence,NA,cold_left,1667937,complete,84,1099.62,NA,0,7,happy.png
task-w6i6,valence,NA,cold_left,1667937,complete,85,508.77,1,1,7,cold.png
task-w6i6,valence,NA,cold_left,1667937,complete,85,1096.537,NA,0,7,cold.png
task-w6i6,valence,NA,cold_left,1667937,complete,86,461.575,1,0,7,happy.png
task-w6i6,valence,NA,cold_left,1667937,complete,86,1005.745,2,1,7,happy.png
task-w6i6,valence,NA,cold_left,1667937,complete,86,1099.625,NA,0,7,happy.png
task-w6i6,valence,NA,cold_left,1667937,complete,87,493.355,1,1,7,cold.png
task-w6i6,valence,NA,cold_left,1667937,complete,87,1099.691,NA,0,7,cold.png
task-w6i6,valence,NA,cold_left,1667937,complete,88,581.41,1,1,7,hot.png
task-w6i6,valence,NA,cold_left,1667937,complete,88,1099.624,NA,0,7,hot.png
task-w6i6,valence,NA,cold_left,1667937,complete,89,403.625,1,1,7,hot.png
task-w6i6,valence,NA,cold_left,1667937,complete,89,1099.549,NA,0,7,hot.png
task-w6i6,valence,NA,cold_left,1667937,complete,90,445.87,1,1,7,cold.png
task-w6i6,valence,NA,cold_left,1667937,complete,90,1099.627,NA,0,7,cold.png
task-w6i6,valence,NA,cold_left,1667937,complete,91,537.61,1,1,7,unhappy.png
task-w6i6,valence,NA,cold_left,1667937,complete,91,1099.616,NA,0,7,unhappy.png
task-w6i6,valence,NA,cold_left,1667937,complete,92,551.035,1,1,7,unhappy.png
task-w6i6,valence,NA,cold_left,1667937,complete,92,1099.647,NA,0,7,unhappy.png
task-w6i6,valence,NA,cold_left,1667937,complete,5,3496.195,NA,0,NA,
task-w6i6,valence,NA,cold_left,1667937,complete,5,699.775,NA,0,NA,
task-w6i6,valence,NA,cold_left,1667937,complete,93,481.8,1,1,5,happy.png
task-w6i6,valence,NA,cold_left,1667937,complete,93,1099.613,NA,0,5,happy.png
task-w6i6,valence,NA,cold_left,1667937,complete,94,430.445,1,1,5,unhappy.png
task-w6i6,valence,NA,cold_left,1667937,complete,94,1099.602,NA,0,5,unhappy.png
task-w6i6,valence,NA,cold_left,1667937,complete,95,502.665,1,1,5,unhappy.png
task-w6i6,valence,NA,cold_left,1667937,complete,95,1099.617,NA,0,5,unhappy.png
task-w6i6,valence,NA,cold_left,1667937,complete,96,351.03,1,1,5,unhappy.png
task-w6i6,valence,NA,cold_left,1667937,complete,96,1099.622,NA,0,5,unhappy.png
task-w6i6,valence,NA,cold_left,1667937,complete,97,429.48,1,1,5,happy.png
task-w6i6,valence,NA,cold_left,1667937,complete,97,1099.62,NA,0,5,happy.png
task-w6i6,valence,NA,cold_left,1667937,complete,98,363.345,1,1,5,happy.png
task-w6i6,valence,NA,cold_left,1667937,complete,98,1099.616,NA,0,5,happy.png
task-w6i6,valence,NA,cold_left,1667937,complete,6,3334.34,NA,0,NA,
task-w6i6,valence,NA,cold_left,1667937,complete,6,699.77,NA,0,NA,
task-w6i6,valence,NA,cold_left,1667937,complete,99,552.305,1,1,3,unhappy.png
task-w6i6,valence,NA,cold_left,1667937,complete,99,1099.607,NA,0,3,unhappy.png
task-w6i6,valence,NA,cold_left,1667937,complete,100,314.625,1,1,3,cold.png
task-w6i6,valence,NA,cold_left,1667937,complete,100,1099.657,NA,0,3,cold.png
task-w6i6,valence,NA,cold_left,1667937,complete,101,333.79,1,1,3,cold.png
task-w6i6,valence,NA,cold_left,1667937,complete,101,1099.616,NA,0,3,cold.png
task-w6i6,valence,NA,cold_left,1667937,complete,102,424.97,1,1,3,happy.png
task-w6i6,valence,NA,cold_left,1667937,complete,102,1099.622,NA,0,3,happy.png
task-w6i6,valence,NA,cold_left,1667937,complete,103,508.16,1,1,3,hot.png
task-w6i6,valence,NA,cold_left,1667937,complete,103,1099.623,NA,0,3,hot.png
task-w6i6,valence,NA,cold_left,1667937,complete,104,305.57,1,1,3,hot.png
task-w6i6,valence,NA,cold_left,1667937,complete,104,1099.673,NA,0,3,hot.png
task-w6i6,valence,NA,cold_left,1667937,complete,105,382.225,1,1,3,unhappy.png
task-w6i6,valence,NA,cold_left,1667937,complete,105,1099.656,NA,0,3,unhappy.png
task-w6i6,valence,NA,cold_left,1667937,complete,106,418.285,1,1,3,cold.png
task-w6i6,valence,NA,cold_left,1667937,complete,106,1099.629,NA,0,3,cold.png
task-w6i6,valence,NA,cold_left,1667937,complete,107,376.01,1,1,3,cold.png
task-w6i6,valence,NA,cold_left,1667937,complete,107,1099.641,NA,0,3,cold.png
task-w6i6,valence,NA,cold_left,1667937,complete,108,402.39,1,1,3,hot.png
task-w6i6,valence,NA,cold_left,1667937,complete,108,1099.71,NA,0,3,hot.png
task-w6i6,valence,NA,cold_left,1667937,complete,109,328.36,1,1,3,unhappy.png
task-w6i6,valence,NA,cold_left,1667937,complete,109,1099.628,NA,0,3,unhappy.png
task-w6i6,valence,NA,cold_left,1667937,complete,110,399.835,1,0,3,happy.png
task-w6i6,valence,NA,cold_left,1667937,complete,110,560.76,2,1,3,happy.png
task-w6i6,valence,NA,cold_left,1667937,complete,110,1099.626,NA,0,3,happy.png
task-w6i6,valence,NA,cold_left,1667937,complete,111,612.265,1,1,3,happy.png
task-w6i6,valence,NA,cold_left,1667937,complete,111,1099.566,NA,0,3,happy.png
task-w6i6,valence,NA,cold_left,1667937,complete,112,356.02,1,1,3,happy.png
task-w6i6,valence,NA,cold_left,1667937,complete,112,1099.616,NA,0,3,happy.png
task-w6i6,valence,NA,cold_left,1667937,complete,113,385.815,1,1,3,unhappy.png
task-w6i6,valence,NA,cold_left,1667937,complete,113,1099.765,NA,0,3,unhappy.png
task-w6i6,valence,NA,cold_left,1667937,complete,114,454.545,1,0,3,hot.png
task-w6i6,valence,NA,cold_left,1667937,complete,114,570.2,2,1,3,hot.png
task-w6i6,valence,NA,cold_left,1667937,complete,114,1099.628,NA,0,3,hot.png
task-w6i6,valence,NA,cold_left,1667937,complete,7,1417.93,NA,0,NA,
task-w6i6,valence,NA,cold_left,1667937,complete,7,699.828,NA,0,NA,
task-w6i6,valence,NA,cold_left,1667937,complete,115,461.555,1,1,4,hot.png
task-w6i6,valence,NA,cold_left,1667937,complete,115,1099.628,NA,0,4,hot.png
task-w6i6,valence,NA,cold_left,1667937,complete,116,456.855,1,1,4,unhappy.png
task-w6i6,valence,NA,cold_left,1667937,complete,116,1099.599,NA,0,4,unhappy.png
task-w6i6,valence,NA,cold_left,1667937,complete,117,518.32,1,1,4,happy.png
task-w6i6,valence,NA,cold_left,1667937,complete,117,1099.616,NA,0,4,happy.png
task-w6i6,valence,NA,cold_left,1667937,complete,118,387.96,1,1,4,hot.png
task-w6i6,valence,NA,cold_left,1667937,complete,118,1099.617,NA,0,4,hot.png
task-w6i6,valence,NA,cold_left,1667937,complete,119,595.675,1,1,4,cold.png
task-w6i6,valence,NA,cold_left,1667937,complete,119,1099.588,NA,0,4,cold.png
task-w6i6,valence,NA,cold_left,1667937,complete,120,425.53,1,1,4,cold.png
task-w6i6,valence,NA,cold_left,1667937,complete,120,1099.686,NA,0,4,cold.png
task-w6i6,valence,NA,cold_left,1667937,complete,121,323.35,1,1,4,cold.png
task-w6i6,valence,NA,cold_left,1667937,complete,121,1099.693,NA,0,4,cold.png
task-w6i6,valence,NA,cold_left,1667937,complete,122,463.345,1,0,4,unhappy.png
task-w6i6,valence,NA,cold_left,1667937,complete,122,1070.42,2,1,4,unhappy.png
task-w6i6,valence,NA,cold_left,1667937,complete,122,1099.596,NA,0,4,unhappy.png
task-w6i6,valence,NA,cold_left,1667937,complete,123,629.735,1,1,4,hot.png
task-w6i6,valence,NA,cold_left,1667937,complete,123,1099.636,NA,0,4,hot.png
task-w6i6,valence,NA,cold_left,1667937,complete,124,469.805,1,1,4,cold.png
task-w6i6,valence,NA,cold_left,1667937,complete,124,1099.652,NA,0,4,cold.png
task-w6i6,valence,NA,cold_left,1667937,complete,125,513.855,1,1,4,unhappy.png
task-w6i6,valence,NA,cold_left,1667937,complete,125,1099.585,NA,0,4,unhappy.png
task-w6i6,valence,NA,cold_left,1667937,complete,126,356.32,1,1,4,cold.png
task-w6i6,valence,NA,cold_left,1667937,complete,126,1099.609,NA,0,4,cold.png
task-w6i6,valence,NA,cold_left,1667937,complete,127,470.225,1,1,4,happy.png
task-w6i6,valence,NA,cold_left,1667937,complete,127,1099.638,NA,0,4,happy.png
task-w6i6,valence,NA,cold_left,1667937,complete,128,391.14,1,1,4,happy.png
task-w6i6,valence,NA,cold_left,1667937,complete,128,1099.638,NA,0,4,happy.png
task-w6i6,valence,NA,cold_left,1667937,complete,129,389.805,1,1,4,hot.png
task-w6i6,valence,NA,cold_left,1667937,complete,129,1099.627,NA,0,4,hot.png
task-w6i6,valence,NA,cold_left,1667937,complete,130,357.085,1,1,4,hot.png
task-w6i6,valence,NA,cold_left,1667937,complete,130,1099.677,NA,0,4,hot.png
task-w6i6,valence,NA,cold_left,1667937,complete,131,390.725,1,1,4,unhappy.png
task-w6i6,valence,NA,cold_left,1667937,complete,131,1099.659,NA,0,4,unhappy.png
task-w6i6,valence,NA,cold_left,1667937,complete,132,456.56,1,1,4,cold.png
task-w6i6,valence,NA,cold_left,1667937,complete,132,1099.628,NA,0,4,cold.png
task-w6i6,valence,NA,cold_left,1667937,complete,133,504.44,1,1,4,unhappy.png
task-w6i6,valence,NA,cold_left,1667937,complete,133,1099.594,NA,0,4,unhappy.png
task-w6i6,valence,NA,cold_left,1667937,complete,134,498.13,1,1,4,happy.png
task-w6i6,valence,NA,cold_left,1667937,complete,134,1099.589,NA,0,4,happy.png
task-w6i6,valence,NA,cold_left,1667937,complete,135,402.2,1,1,4,happy.png
task-w6i6,valence,NA,cold_left,1667937,complete,135,1099.666,NA,0,4,happy.png
task-w6i6,valence,NA,cold_left,1667937,complete,136,395.67,1,1,4,cold.png
task-w6i6,valence,NA,cold_left,1667937,complete,136,1099.656,NA,0,4,cold.png
task-w6i6,valence,NA,cold_left,1667937,complete,137,419.555,1,1,4,hot.png
task-w6i6,valence,NA,cold_left,1667937,complete,137,1099.655,NA,0,4,hot.png
task-w6i6,valence,NA,cold_left,1667937,complete,138,475.73,1,1,4,cold.png
task-w6i6,valence,NA,cold_left,1667937,complete,138,1099.626,NA,0,4,cold.png
task-w6i6,valence,NA,cold_left,1667937,complete,139,428.33,1,1,4,happy.png
task-w6i6,valence,NA,cold_left,1667937,complete,139,1099.634,NA,0,4,happy.png
task-w6i6,valence,NA,cold_left,1667937,complete,140,454.125,1,1,4,hot.png
task-w6i6,valence,NA,cold_left,1667937,complete,140,1099.62,NA,0,4,hot.png
task-w6i6,valence,NA,cold_left,1667937,complete,141,426.215,1,1,4,unhappy.png
task-w6i6,valence,NA,cold_left,1667937,complete,141,1099.564,NA,0,4,unhappy.png
task-w6i6,valence,NA,cold_left,1667937,complete,142,451.08,1,1,4,happy.png
task-w6i6,valence,NA,cold_left,1667937,complete,142,1099.663,NA,0,4,happy.png
task-w6i6,valence,NA,cold_left,1667937,complete,143,382.175,1,1,4,happy.png
task-w6i6,valence,NA,cold_left,1667937,complete,143,1099.646,NA,0,4,happy.png
task-w6i6,valence,NA,cold_left,1667937,complete,144,453.135,1,1,4,cold.png
task-w6i6,valence,NA,cold_left,1667937,complete,144,1099.627,NA,0,4,cold.png
task-w6i6,valence,NA,cold_left,1667937,complete,145,408.555,1,1,4,hot.png
task-w6i6,valence,NA,cold_left,1667937,complete,145,1099.646,NA,0,4,hot.png
task-w6i6,valence,NA,cold_left,1667937,complete,146,521.73,1,1,4,unhappy.png
task-w6i6,valence,NA,cold_left,1667937,complete,146,1099.581,NA,0,4,unhappy.png
task-w6i6,valence,NA,cold_left,1667937,complete,147,447.31,1,1,4,hot.png
task-w6i6,valence,NA,cold_left,1667937,complete,147,1099.608,NA,0,4,hot.png
task-w6i6,valence,NA,cold_left,1667937,complete,148,501.765,1,1,4,happy.png
task-w6i6,valence,NA,cold_left,1667937,complete,148,1097.687,NA,0,4,happy.png
task-w6i6,valence,NA,cold_left,1667937,complete,149,449.79,1,1,4,hot.png
task-w6i6,valence,NA,cold_left,1667937,complete,149,1099.664,NA,0,4,hot.png
task-w6i6,valence,NA,cold_left,1667937,complete,150,399.455,1,1,4,cold.png
task-w6i6,valence,NA,cold_left,1667937,complete,150,1099.664,NA,0,4,cold.png
task-w6i6,valence,NA,cold_left,1667937,complete,151,407.09,1,1,4,hot.png
task-w6i6,valence,NA,cold_left,1667937,complete,151,1099.626,NA,0,4,hot.png
task-w6i6,valence,NA,cold_left,1667937,complete,152,537.245,1,1,4,unhappy.png
task-w6i6,valence,NA,cold_left,1667937,complete,152,1099.66,NA,0,4,unhappy.png
task-w6i6,valence,NA,cold_left,1667937,complete,153,456,1,1,4,happy.png
task-w6i6,valence,NA,cold_left,1667937,complete,153,1099.649,NA,0,4,happy.png
task-w6i6,valence,NA,cold_left,1667937,complete,154,558.72,1,1,4,cold.png
task-w6i6,valence,NA,cold_left,1667937,complete,154,1099.567,NA,0,4,cold.png
task-w6i6,valence,NA,cold_left,1667937,complete,155,507.48,1,1,4,unhappy.png
task-w6i6,valence,NA,cold_left,1667937,complete,155,1099.647,NA,0,4,unhappy.png
task-w6i6,valence,NA,cold_left,1667937,complete,156,465.7,1,1,4,hot.png
task-w6i6,valence,NA,cold_left,1667937,complete,156,1099.639,NA,0,4,hot.png
task-w6i6,valence,NA,cold_left,1667937,complete,157,435.005,1,1,4,unhappy.png
task-w6i6,valence,NA,cold_left,1667937,complete,157,1099.633,NA,0,4,unhappy.png
task-w6i6,valence,NA,cold_left,1667937,complete,158,541.865,1,1,4,unhappy.png
task-w6i6,valence,NA,cold_left,1667937,complete,158,1099.627,NA,0,4,unhappy.png
task-w6i6,valence,NA,cold_left,1667937,complete,159,372.225,1,1,4,unhappy.png
task-w6i6,valence,NA,cold_left,1667937,complete,159,1099.553,NA,0,4,unhappy.png
task-w6i6,valence,NA,cold_left,1667937,complete,160,454.72,1,1,4,happy.png
task-w6i6,valence,NA,cold_left,1667937,complete,160,1099.642,NA,0,4,happy.png
task-w6i6,valence,NA,cold_left,1667937,complete,161,373.48,1,1,4,cold.png
task-w6i6,valence,NA,cold_left,1667937,complete,161,1099.605,NA,0,4,cold.png
task-w6i6,valence,NA,cold_left,1667937,complete,162,417.035,1,1,4,happy.png
task-w6i6,valence,NA,cold_left,1667937,complete,162,1099.61,NA,0,4,happy.png
task-w6i6,valence,NA,cold_left,1667937,complete,END TASK,302894,NA,0,NA,
task-w6i6,valence,NA,cold_left,1667946,complete,BEGIN TASK,,NA,0,NA,
task-w6i6,valence,NA,cold_left,1667946,complete,1,4464.095,NA,0,NA,
task-w6i6,valence,NA,cold_left,1667946,complete,1,699.972,NA,0,NA,
task-w6i6,valence,NA,cold_left,1667946,complete,1,4597.415,1,1,1,happy.png
task-w6i6,valence,NA,cold_left,1667946,complete,1,1100.304,NA,0,1,happy.png
task-w6i6,valence,NA,cold_left,1667946,complete,2,1953.04,1,1,1,unhappy.png
task-w6i6,valence,NA,cold_left,1667946,complete,2,1099.956,NA,0,1,unhappy.png
task-w6i6,valence,NA,cold_left,1667946,complete,3,566.13,1,1,1,unhappy.png
task-w6i6,valence,NA,cold_left,1667946,complete,3,1099.956,NA,0,1,unhappy.png
task-w6i6,valence,NA,cold_left,1667946,complete,4,431.47,1,1,1,happy.png
task-w6i6,valence,NA,cold_left,1667946,complete,4,1099.956,NA,0,1,happy.png
task-w6i6,valence,NA,cold_left,1667946,complete,5,658.97,1,1,1,unhappy.png
task-w6i6,valence,NA,cold_left,1667946,complete,5,1099.956,NA,0,1,unhappy.png
task-w6i6,valence,NA,cold_left,1667946,complete,6,766.165,1,1,1,happy.png
task-w6i6,valence,NA,cold_left,1667946,complete,6,1100.054,NA,0,1,happy.png
task-w6i6,valence,NA,cold_left,1667946,complete,2,2225.64,NA,0,NA,
task-w6i6,valence,NA,cold_left,1667946,complete,2,699.972,NA,0,NA,
task-w6i6,valence,NA,cold_left,1667946,complete,7,761.38,1,1,2,cold.png
task-w6i6,valence,NA,cold_left,1667946,complete,7,1099.956,NA,0,2,cold.png
task-w6i6,valence,NA,cold_left,1667946,complete,8,399.275,1,1,2,cold.png
task-w6i6,valence,NA,cold_left,1667946,complete,8,1099.956,NA,0,2,cold.png
task-w6i6,valence,NA,cold_left,1667946,complete,9,310.935,1,1,2,hot.png
task-w6i6,valence,NA,cold_left,1667946,complete,9,1099.956,NA,0,2,hot.png
task-w6i6,valence,NA,cold_left,1667946,complete,10,450.98,1,1,2,cold.png
task-w6i6,valence,NA,cold_left,1667946,complete,10,1099.956,NA,0,2,cold.png
task-w6i6,valence,NA,cold_left,1667946,complete,11,437.43,1,1,2,hot.png
task-w6i6,valence,NA,cold_left,1667946,complete,11,1100.36,NA,0,2,hot.png
task-w6i6,valence,NA,cold_left,1667946,complete,12,443.44,1,1,2,hot.png
task-w6i6,valence,NA,cold_left,1667946,complete,12,1099.956,NA,0,2,hot.png
task-w6i6,valence,NA,cold_left,1667946,complete,3,5758.71,NA,0,NA,
task-w6i6,valence,NA,cold_left,1667946,complete,3,699.972,NA,0,NA,
task-w6i6,valence,NA,cold_left,1667946,complete,13,1222.26,1,1,6,hot.png
task-w6i6,valence,NA,cold_left,1667946,complete,13,1100.066,NA,0,6,hot.png
task-w6i6,valence,NA,cold_left,1667946,complete,14,576.195,1,1,6,hot.png
task-w6i6,valence,NA,cold_left,1667946,complete,14,1099.956,NA,0,6,hot.png
task-w6i6,valence,NA,cold_left,1667946,complete,15,1085.895,1,1,6,cold.png
task-w6i6,valence,NA,cold_left,1667946,complete,15,1099.956,NA,0,6,cold.png
task-w6i6,valence,NA,cold_left,1667946,complete,16,416.745,1,1,6,cold.png
task-w6i6,valence,NA,cold_left,1667946,complete,16,1099.956,NA,0,6,cold.png
task-w6i6,valence,NA,cold_left,1667946,complete,17,785.435,1,1,6,hot.png
task-w6i6,valence,NA,cold_left,1667946,complete,17,1099.956,NA,0,6,hot.png
task-w6i6,valence,NA,cold_left,1667946,complete,18,740.84,1,1,6,happy.png
task-w6i6,valence,NA,cold_left,1667946,complete,18,1099.956,NA,0,6,happy.png
task-w6i6,valence,NA,cold_left,1667946,complete,19,730.81,1,1,6,cold.png
task-w6i6,valence,NA,cold_left,1667946,complete,19,1100.358,NA,0,6,cold.png
task-w6i6,valence,NA,cold_left,1667946,complete,20,547.01,1,1,6,happy.png
task-w6i6,valence,NA,cold_left,1667946,complete,20,1099.956,NA,0,6,happy.png
task-w6i6,valence,NA,cold_left,1667946,complete,21,434.85,1,1,6,unhappy.png
task-w6i6,valence,NA,cold_left,1667946,complete,21,1099.956,NA,0,6,unhappy.png
task-w6i6,valence,NA,cold_left,1667946,complete,22,397.28,1,0,6,happy.png
task-w6i6,valence,NA,cold_left,1667946,complete,22,733.975,2,1,6,happy.png
task-w6i6,valence,NA,cold_left,1667946,complete,22,1099.956,NA,0,6,happy.png
task-w6i6,valence,NA,cold_left,1667946,complete,23,875.73,1,1,6,unhappy.png
task-w6i6,valence,NA,cold_left,1667946,complete,23,1099.956,NA,0,6,unhappy.png
task-w6i6,valence,NA,cold_left,1667946,complete,24,531.675,1,1,6,happy.png
task-w6i6,valence,NA,cold_left,1667946,complete,24,1099.956,NA,0,6,happy.png
task-w6i6,valence,NA,cold_left,1667946,complete,25,454.895,1,1,6,unhappy.png
task-w6i6,valence,NA,cold_left,1667946,complete,25,1099.956,NA,0,6,unhappy.png
task-w6i6,valence,NA,cold_left,1667946,complete,26,576.625,1,1,6,cold.png
task-w6i6,valence,NA,cold_left,1667946,complete,26,1099.956,NA,0,6,cold.png
task-w6i6,valence,NA,cold_left,1667946,complete,27,1274.095,1,1,6,unhappy.png
task-w6i6,valence,NA,cold_left,1667946,complete,27,1099.956,NA,0,6,unhappy.png
task-w6i6,valence,NA,cold_left,1667946,complete,28,847.765,1,1,6,unhappy.png
task-w6i6,valence,NA,cold_left,1667946,complete,28,1099.956,NA,0,6,unhappy.png
task-w6i6,valence,NA,cold_left,1667946,complete,29,809.505,1,1,6,hot.png
task-w6i6,valence,NA,cold_left,1667946,complete,29,1099.956,NA,0,6,hot.png
task-w6i6,valence,NA,cold_left,1667946,complete,30,1111.455,1,1,6,unhappy.png
task-w6i6,valence,NA,cold_left,1667946,complete,30,1099.956,NA,0,6,unhappy.png
task-w6i6,valence,NA,cold_left,1667946,complete,31,513.35,1,1,6,cold.png
task-w6i6,valence,NA,cold_left,1667946,complete,31,1099.956,NA,0,6,cold.png
task-w6i6,valence,NA,cold_left,1667946,complete,32,531.285,1,1,6,cold.png
task-w6i6,valence,NA,cold_left,1667946,complete,32,1099.956,NA,0,6,cold.png
task-w6i6,valence,NA,cold_left,1667946,complete,33,771.04,1,1,6,hot.png
task-w6i6,valence,NA,cold_left,1667946,complete,33,1099.956,NA,0,6,hot.png
task-w6i6,valence,NA,cold_left,1667946,complete,34,407.62,1,1,6,hot.png
task-w6i6,valence,NA,cold_left,1667946,complete,34,1099.956,NA,0,6,hot.png
task-w6i6,valence,NA,cold_left,1667946,complete,35,679.65,1,1,6,cold.png
task-w6i6,valence,NA,cold_left,1667946,complete,35,1099.956,NA,0,6,cold.png
task-w6i6,valence,NA,cold_left,1667946,complete,36,938.31,1,1,6,happy.png
task-w6i6,valence,NA,cold_left,1667946,complete,36,1100.338,NA,0,6,happy.png
task-w6i6,valence,NA,cold_left,1667946,complete,37,628.65,1,1,6,unhappy.png
task-w6i6,valence,NA,cold_left,1667946,complete,37,1099.956,NA,0,6,unhappy.png
task-w6i6,valence,NA,cold_left,1667946,complete,38,867.59,1,1,6,happy.png
task-w6i6,valence,NA,cold_left,1667946,complete,38,1099.956,NA,0,6,happy.png
task-w6i6,valence,NA,cold_left,1667946,complete,39,667.305,1,1,6,happy.png
task-w6i6,valence,NA,cold_left,1667946,complete,39,1099.956,NA,0,6,happy.png
task-w6i6,valence,NA,cold_left,1667946,complete,40,542.325,1,1,6,cold.png
task-w6i6,valence,NA,cold_left,1667946,complete,40,1099.956,NA,0,6,cold.png
task-w6i6,valence,NA,cold_left,1667946,complete,41,469.055,1,1,6,hot.png
task-w6i6,valence,NA,cold_left,1667946,complete,41,1099.956,NA,0,6,hot.png
task-w6i6,valence,NA,cold_left,1667946,complete,42,956.735,1,1,6,unhappy.png
task-w6i6,valence,NA,cold_left,1667946,complete,42,1100.062,NA,0,6,unhappy.png
task-w6i6,valence,NA,cold_left,1667946,complete,43,504.95,1,1,6,hot.png
task-w6i6,valence,NA,cold_left,1667946,complete,43,1099.956,NA,0,6,hot.png
task-w6i6,valence,NA,cold_left,1667946,complete,44,787.625,1,1,6,happy.png
task-w6i6,valence,NA,cold_left,1667946,complete,44,1099.956,NA,0,6,happy.png
task-w6i6,valence,NA,cold_left,1667946,complete,4,8736.57,NA,0,NA,
task-w6i6,valence,NA,cold_left,1667946,complete,4,700.456,NA,0,NA,
task-w6i6,valence,NA,cold_left,1667946,complete,45,761.35,1,1,7,happy.png
task-w6i6,valence,NA,cold_left,1667946,complete,45,1099.956,NA,0,7,happy.png
task-w6i6,valence,NA,cold_left,1667946,complete,46,656.795,1,1,7,unhappy.png
task-w6i6,valence,NA,cold_left,1667946,complete,46,1099.956,NA,0,7,unhappy.png
task-w6i6,valence,NA,cold_left,1667946,complete,47,563.11,1,1,7,happy.png
task-w6i6,valence,NA,cold_left,1667946,complete,47,1099.956,NA,0,7,happy.png
task-w6i6,valence,NA,cold_left,1667946,complete,48,570.32,1,1,7,cold.png
task-w6i6,valence,NA,cold_left,1667946,complete,48,1099.956,NA,0,7,cold.png
task-w6i6,valence,NA,cold_left,1667946,complete,49,535.2,1,1,7,hot.png
task-w6i6,valence,NA,cold_left,1667946,complete,49,1099.956,NA,0,7,hot.png
task-w6i6,valence,NA,cold_left,1667946,complete,50,388.095,1,1,7,hot.png
task-w6i6,valence,NA,cold_left,1667946,complete,50,1099.956,NA,0,7,hot.png
task-w6i6,valence,NA,cold_left,1667946,complete,51,394.96,1,0,7,unhappy.png
task-w6i6,valence,NA,cold_left,1667946,complete,51,808.98,2,1,7,unhappy.png
task-w6i6,valence,NA,cold_left,1667946,complete,51,1099.956,NA,0,7,unhappy.png
task-w6i6,valence,NA,cold_left,1667946,complete,52,841.155,1,1,7,happy.png
task-w6i6,valence,NA,cold_left,1667946,complete,52,1099.956,NA,0,7,happy.png
task-w6i6,valence,NA,cold_left,1667946,complete,53,659.395,1,1,7,cold.png
task-w6i6,valence,NA,cold_left,1667946,complete,53,1099.956,NA,0,7,cold.png
task-w6i6,valence,NA,cold_left,1667946,complete,54,593.11,1,1,7,cold.png
task-w6i6,valence,NA,cold_left,1667946,complete,54,1099.956,NA,0,7,cold.png
task-w6i6,valence,NA,cold_left,1667946,complete,55,426.155,1,1,7,cold.png
task-w6i6,valence,NA,cold_left,1667946,complete,55,1099.956,NA,0,7,cold.png
task-w6i6,valence,NA,cold_left,1667946,complete,56,573.84,1,1,7,unhappy.png
task-w6i6,valence,NA,cold_left,1667946,complete,56,1100.301,NA,0,7,unhappy.png
task-w6i6,valence,NA,cold_left,1667946,complete,57,374.17,1,1,7,hot.png
task-w6i6,valence,NA,cold_left,1667946,complete,57,1099.956,NA,0,7,hot.png
task-w6i6,valence,NA,cold_left,1667946,complete,58,577.035,1,1,7,unhappy.png
task-w6i6,valence,NA,cold_left,1667946,complete,58,1099.956,NA,0,7,unhappy.png
task-w6i6,valence,NA,cold_left,1667946,complete,59,411.95,1,1,7,hot.png
task-w6i6,valence,NA,cold_left,1667946,complete,59,1099.956,NA,0,7,hot.png
task-w6i6,valence,NA,cold_left,1667946,complete,60,506.595,1,1,7,cold.png
task-w6i6,valence,NA,cold_left,1667946,complete,60,1099.956,NA,0,7,cold.png
task-w6i6,valence,NA,cold_left,1667946,complete,61,575.035,1,1,7,unhappy.png
task-w6i6,valence,NA,cold_left,1667946,complete,61,1099.956,NA,0,7,unhappy.png
task-w6i6,valence,NA,cold_left,1667946,complete,62,503.305,1,1,7,unhappy.png
task-w6i6,valence,NA,cold_left,1667946,complete,62,1099.956,NA,0,7,unhappy.png
task-w6i6,valence,NA,cold_left,1667946,complete,63,542.35,1,1,7,cold.png
task-w6i6,valence,NA,cold_left,1667946,complete,63,1099.956,NA,0,7,cold.png
task-w6i6,valence,NA,cold_left,1667946,complete,64,424.07,1,1,7,cold.png
task-w6i6,valence,NA,cold_left,1667946,complete,64,1099.956,NA,0,7,cold.png
task-w6i6,valence,NA,cold_left,1667946,complete,65,1152.17,1,1,7,happy.png
task-w6i6,valence,NA,cold_left,1667946,complete,65,1099.956,NA,0,7,happy.png
task-w6i6,valence,NA,cold_left,1667946,complete,66,543.775,1,1,7,hot.png
task-w6i6,valence,NA,cold_left,1667946,complete,66,1099.956,NA,0,7,hot.png
task-w6i6,valence,NA,cold_left,1667946,complete,67,715.125,1,1,7,happy.png
task-w6i6,valence,NA,cold_left,1667946,complete,67,1099.956,NA,0,7,happy.png
task-w6i6,valence,NA,cold_left,1667946,complete,68,594.56,1,1,7,unhappy.png
task-w6i6,valence,NA,cold_left,1667946,complete,68,1100.201,NA,0,7,unhappy.png
task-w6i6,valence,NA,cold_left,1667946,complete,69,505.63,1,1,7,happy.png
task-w6i6,valence,NA,cold_left,1667946,complete,69,1099.956,NA,0,7,happy.png
task-w6i6,valence,NA,cold_left,1667946,complete,70,393.36,1,1,7,unhappy.png
task-w6i6,valence,NA,cold_left,1667946,complete,70,1099.956,NA,0,7,unhappy.png
task-w6i6,valence,NA,cold_left,1667946,complete,71,410.655,1,1,7,unhappy.png
task-w6i6,valence,NA,cold_left,1667946,complete,71,1099.956,NA,0,7,unhappy.png
task-w6i6,valence,NA,cold_left,1667946,complete,72,482.7,1,1,7,hot.png
task-w6i6,valence,NA,cold_left,1667946,complete,72,1099.956,NA,0,7,hot.png
task-w6i6,valence,NA,cold_left,1667946,complete,73,517.375,1,1,7,happy.png
task-w6i6,valence,NA,cold_left,1667946,complete,73,1099.956,NA,0,7,happy.png
task-w6i6,valence,NA,cold_left,1667946,complete,74,664.87,1,1,7,happy.png
task-w6i6,valence,NA,cold_left,1667946,complete,74,1099.956,NA,0,7,happy.png
task-w6i6,valence,NA,cold_left,1667946,complete,75,485.355,1,1,7,happy.png
task-w6i6,valence,NA,cold_left,1667946,complete,75,1099.956,NA,0,7,happy.png
task-w6i6,valence,NA,cold_left,1667946,complete,76,499.6,1,1,7,hot.png
task-w6i6,valence,NA,cold_left,1667946,complete,76,1099.956,NA,0,7,hot.png
task-w6i6,valence,NA,cold_left,1667946,complete,77,381.695,1,1,7,hot.png
task-w6i6,valence,NA,cold_left,1667946,complete,77,1099.956,NA,0,7,hot.png
task-w6i6,valence,NA,cold_left,1667946,complete,78,589.75,1,1,7,unhappy.png
task-w6i6,valence,NA,cold_left,1667946,complete,78,1099.956,NA,0,7,unhappy.png
task-w6i6,valence,NA,cold_left,1667946,complete,79,382.55,1,1,7,hot.png
task-w6i6,valence,NA,cold_left,1667946,complete,79,1099.956,NA,0,7,hot.png
task-w6i6,valence,NA,cold_left,1667946,complete,80,588.765,1,1,7,happy.png
task-w6i6,valence,NA,cold_left,1667946,complete,80,1099.956,NA,0,7,happy.png
task-w6i6,valence,NA,cold_left,1667946,complete,81,898.4,1,1,7,cold.png
task-w6i6,valence,NA,cold_left,1667946,complete,81,1100.102,NA,0,7,cold.png
task-w6i6,valence,NA,cold_left,1667946,complete,82,471.96,1,1,7,hot.png
task-w6i6,valence,NA,cold_left,1667946,complete,82,1099.956,NA,0,7,hot.png
task-w6i6,valence,NA,cold_left,1667946,complete,83,535.385,1,1,7,cold.png
task-w6i6,valence,NA,cold_left,1667946,complete,83,1099.956,NA,0,7,cold.png
task-w6i6,valence,NA,cold_left,1667946,complete,84,698.905,1,1,7,happy.png
task-w6i6,valence,NA,cold_left,1667946,complete,84,1099.956,NA,0,7,happy.png
task-w6i6,valence,NA,cold_left,1667946,complete,85,487.815,1,1,7,hot.png
task-w6i6,valence,NA,cold_left,1667946,complete,85,1099.956,NA,0,7,hot.png
task-w6i6,valence,NA,cold_left,1667946,complete,86,470.335,1,1,7,unhappy.png
task-w6i6,valence,NA,cold_left,1667946,complete,86,1099.956,NA,0,7,unhappy.png
task-w6i6,valence,NA,cold_left,1667946,complete,87,422.71,1,1,7,hot.png
task-w6i6,valence,NA,cold_left,1667946,complete,87,1099.956,NA,0,7,hot.png
task-w6i6,valence,NA,cold_left,1667946,complete,88,583.575,1,1,7,unhappy.png
task-w6i6,valence,NA,cold_left,1667946,complete,88,1099.956,NA,0,7,unhappy.png
task-w6i6,valence,NA,cold_left,1667946,complete,89,465.625,1,1,7,cold.png
task-w6i6,valence,NA,cold_left,1667946,complete,89,1099.956,NA,0,7,cold.png
task-w6i6,valence,NA,cold_left,1667946,complete,90,537.15,1,1,7,happy.png
task-w6i6,valence,NA,cold_left,1667946,complete,90,1099.956,NA,0,7,happy.png
task-w6i6,valence,NA,cold_left,1667946,complete,91,483.075,1,1,7,cold.png
task-w6i6,valence,NA,cold_left,1667946,complete,91,1099.956,NA,0,7,cold.png
task-w6i6,valence,NA,cold_left,1667946,complete,92,375.615,1,1,7,cold.png
task-w6i6,valence,NA,cold_left,1667946,complete,92,1099.956,NA,0,7,cold.png
task-w6i6,valence,NA,cold_left,1667946,complete,5,2441.735,NA,0,NA,
task-w6i6,valence,NA,cold_left,1667946,complete,5,700.236,NA,0,NA,
task-w6i6,valence,NA,cold_left,1667946,complete,93,677.87,1,1,5,unhappy.png
task-w6i6,valence,NA,cold_left,1667946,complete,93,1099.956,NA,0,5,unhappy.png
task-w6i6,valence,NA,cold_left,1667946,complete,94,437.105,1,1,5,happy.png
task-w6i6,valence,NA,cold_left,1667946,complete,94,1099.956,NA,0,5,happy.png
task-w6i6,valence,NA,cold_left,1667946,complete,95,487.7,1,1,5,unhappy.png
task-w6i6,valence,NA,cold_left,1667946,complete,95,1099.956,NA,0,5,unhappy.png
task-w6i6,valence,NA,cold_left,1667946,complete,96,472.74,1,1,5,happy.png
task-w6i6,valence,NA,cold_left,1667946,complete,96,1099.956,NA,0,5,happy.png
task-w6i6,valence,NA,cold_left,1667946,complete,97,449.85,1,1,5,happy.png
task-w6i6,valence,NA,cold_left,1667946,complete,97,1099.956,NA,0,5,happy.png
task-w6i6,valence,NA,cold_left,1667946,complete,98,387,1,1,5,unhappy.png
task-w6i6,valence,NA,cold_left,1667946,complete,98,1099.956,NA,0,5,unhappy.png
task-w6i6,valence,NA,cold_left,1667946,complete,6,3047.41,NA,0,NA,
task-w6i6,valence,NA,cold_left,1667946,complete,6,700.144,NA,0,NA,
task-w6i6,valence,NA,cold_left,1667946,complete,99,1333.985,1,1,3,cold.png
task-w6i6,valence,NA,cold_left,1667946,complete,99,1099.956,NA,0,3,cold.png
task-w6i6,valence,NA,cold_left,1667946,complete,100,571.115,1,1,3,cold.png
task-w6i6,valence,NA,cold_left,1667946,complete,100,1099.956,NA,0,3,cold.png
task-w6i6,valence,NA,cold_left,1667946,complete,101,673.555,1,1,3,unhappy.png
task-w6i6,valence,NA,cold_left,1667946,complete,101,1099.956,NA,0,3,unhappy.png
task-w6i6,valence,NA,cold_left,1667946,complete,102,579.215,1,1,3,cold.png
task-w6i6,valence,NA,cold_left,1667946,complete,102,1100.296,NA,0,3,cold.png
task-w6i6,valence,NA,cold_left,1667946,complete,103,424.715,1,1,3,unhappy.png
task-w6i6,valence,NA,cold_left,1667946,complete,103,1099.956,NA,0,3,unhappy.png
task-w6i6,valence,NA,cold_left,1667946,complete,104,408.39,1,1,3,unhappy.png
task-w6i6,valence,NA,cold_left,1667946,complete,104,1099.956,NA,0,3,unhappy.png
task-w6i6,valence,NA,cold_left,1667946,complete,105,531.25,1,1,3,happy.png
task-w6i6,valence,NA,cold_left,1667946,complete,105,1099.956,NA,0,3,happy.png
task-w6i6,valence,NA,cold_left,1667946,complete,106,424.425,1,1,3,happy.png
task-w6i6,valence,NA,cold_left,1667946,complete,106,1099.956,NA,0,3,happy.png
task-w6i6,valence,NA,cold_left,1667946,complete,107,350.725,1,1,3,happy.png
task-w6i6,valence,NA,cold_left,1667946,complete,107,1099.956,NA,0,3,happy.png
task-w6i6,valence,NA,cold_left,1667946,complete,108,409.665,1,1,3,hot.png
task-w6i6,valence,NA,cold_left,1667946,complete,108,1099.956,NA,0,3,hot.png
task-w6i6,valence,NA,cold_left,1667946,complete,109,397.55,1,1,3,hot.png
task-w6i6,valence,NA,cold_left,1667946,complete,109,1100.055,NA,0,3,hot.png
task-w6i6,valence,NA,cold_left,1667946,complete,110,525.405,1,1,3,unhappy.png
task-w6i6,valence,NA,cold_left,1667946,complete,110,1099.956,NA,0,3,unhappy.png
task-w6i6,valence,NA,cold_left,1667946,complete,111,432.545,1,1,3,hot.png
task-w6i6,valence,NA,cold_left,1667946,complete,111,1099.956,NA,0,3,hot.png
task-w6i6,valence,NA,cold_left,1667946,complete,112,394.49,1,1,3,hot.png
task-w6i6,valence,NA,cold_left,1667946,complete,112,1099.956,NA,0,3,hot.png
task-w6i6,valence,NA,cold_left,1667946,complete,113,417.095,1,0,3,cold.png
task-w6i6,valence,NA,cold_left,1667946,complete,113,872.43,2,1,3,cold.png
task-w6i6,valence,NA,cold_left,1667946,complete,113,1099.956,NA,0,3,cold.png
task-w6i6,valence,NA,cold_left,1667946,complete,114,516.77,1,0,3,happy.png
task-w6i6,valence,NA,cold_left,1667946,complete,114,1006.315,2,1,3,happy.png
task-w6i6,valence,NA,cold_left,1667946,complete,114,1099.956,NA,0,3,happy.png
task-w6i6,valence,NA,cold_left,1667946,complete,7,2587.465,NA,0,NA,
task-w6i6,valence,NA,cold_left,1667946,complete,7,700.261,NA,0,NA,
task-w6i6,valence,NA,cold_left,1667946,complete,115,1206.64,1,1,4,hot.png
task-w6i6,valence,NA,cold_left,1667946,complete,115,1099.956,NA,0,4,hot.png
task-w6i6,valence,NA,cold_left,1667946,complete,116,779.03,1,1,4,cold.png
task-w6i6,valence,NA,cold_left,1667946,complete,116,1099.956,NA,0,4,cold.png
task-w6i6,valence,NA,cold_left,1667946,complete,117,1033.03,1,1,4,unhappy.png
task-w6i6,valence,NA,cold_left,1667946,complete,117,1099.956,NA,0,4,unhappy.png
task-w6i6,valence,NA,cold_left,1667946,complete,118,752.02,1,1,4,cold.png
task-w6i6,valence,NA,cold_left,1667946,complete,118,1100.178,NA,0,4,cold.png
task-w6i6,valence,NA,cold_left,1667946,complete,119,412.225,1,1,4,cold.png
task-w6i6,valence,NA,cold_left,1667946,complete,119,1099.956,NA,0,4,cold.png
task-w6i6,valence,NA,cold_left,1667946,complete,120,402.985,1,1,4,hot.png
task-w6i6,valence,NA,cold_left,1667946,complete,120,1099.956,NA,0,4,hot.png
task-w6i6,valence,NA,cold_left,1667946,complete,121,1139.065,1,1,4,unhappy.png
task-w6i6,valence,NA,cold_left,1667946,complete,121,1099.956,NA,0,4,unhappy.png
task-w6i6,valence,NA,cold_left,1667946,complete,122,788.18,1,1,4,happy.png
task-w6i6,valence,NA,cold_left,1667946,complete,122,1099.956,NA,0,4,happy.png
task-w6i6,valence,NA,cold_left,1667946,complete,123,532.27,1,1,4,hot.png
task-w6i6,valence,NA,cold_left,1667946,complete,123,1099.956,NA,0,4,hot.png
task-w6i6,valence,NA,cold_left,1667946,complete,124,651.265,1,1,4,unhappy.png
task-w6i6,valence,NA,cold_left,1667946,complete,124,1100.219,NA,0,4,unhappy.png
task-w6i6,valence,NA,cold_left,1667946,complete,125,430.01,1,1,4,hot.png
task-w6i6,valence,NA,cold_left,1667946,complete,125,1099.956,NA,0,4,hot.png
task-w6i6,valence,NA,cold_left,1667946,complete,126,385.02,1,1,4,hot.png
task-w6i6,valence,NA,cold_left,1667946,complete,126,1099.956,NA,0,4,hot.png
task-w6i6,valence,NA,cold_left,1667946,complete,127,418.285,1,1,4,hot.png
task-w6i6,valence,NA,cold_left,1667946,complete,127,1099.956,NA,0,4,hot.png
task-w6i6,valence,NA,cold_left,1667946,complete,128,530.715,1,1,4,cold.png
task-w6i6,valence,NA,cold_left,1667946,complete,128,1099.956,NA,0,4,cold.png
task-w6i6,valence,NA,cold_left,1667946,complete,129,528.045,1,1,4,happy.png
task-w6i6,valence,NA,cold_left,1667946,complete,129,1099.956,NA,0,4,happy.png
task-w6i6,valence,NA,cold_left,1667946,complete,130,468.885,1,1,4,unhappy.png
task-w6i6,valence,NA,cold_left,1667946,complete,130,1099.956,NA,0,4,unhappy.png
task-w6i6,valence,NA,cold_left,1667946,complete,131,452.54,1,1,4,hot.png
task-w6i6,valence,NA,cold_left,1667946,complete,131,1099.956,NA,0,4,hot.png
task-w6i6,valence,NA,cold_left,1667946,complete,132,352.395,1,1,4,hot.png
task-w6i6,valence,NA,cold_left,1667946,complete,132,1099.956,NA,0,4,hot.png
task-w6i6,valence,NA,cold_left,1667946,complete,133,1041.73,1,1,4,happy.png
task-w6i6,valence,NA,cold_left,1667946,complete,133,1099.956,NA,0,4,happy.png
task-w6i6,valence,NA,cold_left,1667946,complete,134,494.01,1,1,4,unhappy.png
task-w6i6,valence,NA,cold_left,1667946,complete,134,1099.956,NA,0,4,unhappy.png
task-w6i6,valence,NA,cold_left,1667946,complete,135,691.285,1,1,4,cold.png
task-w6i6,valence,NA,cold_left,1667946,complete,135,1099.956,NA,0,4,cold.png
task-w6i6,valence,NA,cold_left,1667946,complete,136,453.05,1,1,4,happy.png
task-w6i6,valence,NA,cold_left,1667946,complete,136,1099.956,NA,0,4,happy.png
task-w6i6,valence,NA,cold_left,1667946,complete,137,430.065,1,1,4,hot.png
task-w6i6,valence,NA,cold_left,1667946,complete,137,1099.956,NA,0,4,hot.png
task-w6i6,valence,NA,cold_left,1667946,complete,138,383.515,1,1,4,cold.png
task-w6i6,valence,NA,cold_left,1667946,complete,138,1099.956,NA,0,4,cold.png
task-w6i6,valence,NA,cold_left,1667946,complete,139,436.64,1,1,4,happy.png
task-w6i6,valence,NA,cold_left,1667946,complete,139,1099.956,NA,0,4,happy.png
task-w6i6,valence,NA,cold_left,1667946,complete,140,969.4,1,1,4,unhappy.png
task-w6i6,valence,NA,cold_left,1667946,complete,140,1099.956,NA,0,4,unhappy.png
task-w6i6,valence,NA,cold_left,1667946,complete,141,472.195,1,1,4,hot.png
task-w6i6,valence,NA,cold_left,1667946,complete,141,1099.956,NA,0,4,hot.png
task-w6i6,valence,NA,cold_left,1667946,complete,142,610.575,1,1,4,unhappy.png
task-w6i6,valence,NA,cold_left,1667946,complete,142,1100.206,NA,0,4,unhappy.png
task-w6i6,valence,NA,cold_left,1667946,complete,143,590.57,1,1,4,unhappy.png
task-w6i6,valence,NA,cold_left,1667946,complete,143,1099.956,NA,0,4,unhappy.png
task-w6i6,valence,NA,cold_left,1667946,complete,144,498.05,1,1,4,happy.png
task-w6i6,valence,NA,cold_left,1667946,complete,144,1099.956,NA,0,4,happy.png
task-w6i6,valence,NA,cold_left,1667946,complete,145,660.57,1,1,4,unhappy.png
task-w6i6,valence,NA,cold_left,1667946,complete,145,1099.956,NA,0,4,unhappy.png
task-w6i6,valence,NA,cold_left,1667946,complete,146,591.02,1,1,4,cold.png
task-w6i6,valence,NA,cold_left,1667946,complete,146,1099.956,NA,0,4,cold.png
task-w6i6,valence,NA,cold_left,1667946,complete,147,457.93,1,1,4,happy.png
task-w6i6,valence,NA,cold_left,1667946,complete,147,1099.956,NA,0,4,happy.png
task-w6i6,valence,NA,cold_left,1667946,complete,148,722.98,1,1,4,cold.png
task-w6i6,valence,NA,cold_left,1667946,complete,148,1099.956,NA,0,4,cold.png
task-w6i6,valence,NA,cold_left,1667946,complete,149,518.925,1,1,4,cold.png
task-w6i6,valence,NA,cold_left,1667946,complete,149,1100.212,NA,0,4,cold.png
task-w6i6,valence,NA,cold_left,1667946,complete,150,392.645,1,1,4,hot.png
task-w6i6,valence,NA,cold_left,1667946,complete,150,1099.956,NA,0,4,hot.png
task-w6i6,valence,NA,cold_left,1667946,complete,151,442.13,1,1,4,cold.png
task-w6i6,valence,NA,cold_left,1667946,complete,151,1099.956,NA,0,4,cold.png
task-w6i6,valence,NA,cold_left,1667946,complete,152,855.74,1,1,4,unhappy.png
task-w6i6,valence,NA,cold_left,1667946,complete,152,1099.956,NA,0,4,unhappy.png
task-w6i6,valence,NA,cold_left,1667946,complete,153,376.805,1,1,4,happy.png
task-w6i6,valence,NA,cold_left,1667946,complete,153,1099.956,NA,0,4,happy.png
task-w6i6,valence,NA,cold_left,1667946,complete,154,384.995,1,1,4,happy.png
task-w6i6,valence,NA,cold_left,1667946,complete,154,1099.956,NA,0,4,happy.png
task-w6i6,valence,NA,cold_left,1667946,complete,155,462.01,1,1,4,unhappy.png
task-w6i6,valence,NA,cold_left,1667946,complete,155,1100.21,NA,0,4,unhappy.png
task-w6i6,valence,NA,cold_left,1667946,complete,156,514.88,1,1,4,cold.png
task-w6i6,valence,NA,cold_left,1667946,complete,156,1099.956,NA,0,4,cold.png
task-w6i6,valence,NA,cold_left,1667946,complete,157,467.66,1,1,4,happy.png
task-w6i6,valence,NA,cold_left,1667946,complete,157,1099.956,NA,0,4,happy.png
task-w6i6,valence,NA,cold_left,1667946,complete,158,417.44,1,1,4,happy.png
task-w6i6,valence,NA,cold_left,1667946,complete,158,1099.956,NA,0,4,happy.png
task-w6i6,valence,NA,cold_left,1667946,complete,159,556.7,1,1,4,happy.png
task-w6i6,valence,NA,cold_left,1667946,complete,159,1099.956,NA,0,4,happy.png
task-w6i6,valence,NA,cold_left,1667946,complete,160,503.21,1,1,4,cold.png
task-w6i6,valence,NA,cold_left,1667946,complete,160,1099.956,NA,0,4,cold.png
task-w6i6,valence,NA,cold_left,1667946,complete,161,425.11,1,1,4,hot.png
task-w6i6,valence,NA,cold_left,1667946,complete,161,1099.956,NA,0,4,hot.png
task-w6i6,valence,NA,cold_left,1667946,complete,162,559.24,1,1,4,unhappy.png
task-w6i6,valence,NA,cold_left,1667946,complete,162,1099.956,NA,0,4,unhappy.png
task-w6i6,valence,NA,cold_left,1667946,complete,END TASK,315079,NA,0,NA,
task-w6i6,valence,NA,cold_left,1667956,complete,BEGIN TASK,,NA,0,NA,
task-w6i6,valence,NA,cold_left,1667956,complete,1,3794.715,NA,0,NA,
task-w6i6,valence,NA,cold_left,1667956,complete,1,700.207,NA,0,NA,
task-w6i6,valence,NA,cold_left,1667956,complete,1,4359.165,1,1,1,unhappy.png
task-w6i6,valence,NA,cold_left,1667956,complete,1,1100.399,NA,0,1,unhappy.png
task-w6i6,valence,NA,cold_left,1667956,complete,2,1225.655,1,1,1,happy.png
task-w6i6,valence,NA,cold_left,1667956,complete,2,1100.268,NA,0,1,happy.png
task-w6i6,valence,NA,cold_left,1667956,complete,3,595.805,1,1,1,happy.png
task-w6i6,valence,NA,cold_left,1667956,complete,3,1100.228,NA,0,1,happy.png
task-w6i6,valence,NA,cold_left,1667956,complete,4,455.185,1,1,1,happy.png
task-w6i6,valence,NA,cold_left,1667956,complete,4,1100.226,NA,0,1,happy.png
task-w6i6,valence,NA,cold_left,1667956,complete,5,404.205,1,1,1,unhappy.png
task-w6i6,valence,NA,cold_left,1667956,complete,5,1100.227,NA,0,1,unhappy.png
task-w6i6,valence,NA,cold_left,1667956,complete,6,344.5,1,1,1,unhappy.png
task-w6i6,valence,NA,cold_left,1667956,complete,6,1100.222,NA,0,1,unhappy.png
task-w6i6,valence,NA,cold_left,1667956,complete,2,3366.115,NA,0,NA,
task-w6i6,valence,NA,cold_left,1667956,complete,2,700.287,NA,0,NA,
task-w6i6,valence,NA,cold_left,1667956,complete,7,1284.59,1,1,2,hot.png
task-w6i6,valence,NA,cold_left,1667956,complete,7,1100.259,NA,0,2,hot.png
task-w6i6,valence,NA,cold_left,1667956,complete,8,568.355,1,1,2,cold.png
task-w6i6,valence,NA,cold_left,1667956,complete,8,1100.219,NA,0,2,cold.png
task-w6i6,valence,NA,cold_left,1667956,complete,9,417.385,1,1,2,hot.png
task-w6i6,valence,NA,cold_left,1667956,complete,9,1100.228,NA,0,2,hot.png
task-w6i6,valence,NA,cold_left,1667956,complete,10,491.93,1,1,2,cold.png
task-w6i6,valence,NA,cold_left,1667956,complete,10,1100.232,NA,0,2,cold.png
task-w6i6,valence,NA,cold_left,1667956,complete,11,492.155,1,1,2,cold.png
task-w6i6,valence,NA,cold_left,1667956,complete,11,1100.216,NA,0,2,cold.png
task-w6i6,valence,NA,cold_left,1667956,complete,12,435.835,1,1,2,hot.png
task-w6i6,valence,NA,cold_left,1667956,complete,12,1100.226,NA,0,2,hot.png
task-w6i6,valence,NA,cold_left,1667956,complete,3,3710.945,NA,0,NA,
task-w6i6,valence,NA,cold_left,1667956,complete,3,700.187,NA,0,NA,
task-w6i6,valence,NA,cold_left,1667956,complete,13,1176.26,1,1,6,cold.png
task-w6i6,valence,NA,cold_left,1667956,complete,13,1100.21,NA,0,6,cold.png
task-w6i6,valence,NA,cold_left,1667956,complete,14,836.69,1,1,6,happy.png
task-w6i6,valence,NA,cold_left,1667956,complete,14,1100.243,NA,0,6,happy.png
task-w6i6,valence,NA,cold_left,1667956,complete,15,1102.845,1,1,6,cold.png
task-w6i6,valence,NA,cold_left,1667956,complete,15,1100.264,NA,0,6,cold.png
task-w6i6,valence,NA,cold_left,1667956,complete,16,788.42,1,1,6,happy.png
task-w6i6,valence,NA,cold_left,1667956,complete,16,1100.247,NA,0,6,happy.png
task-w6i6,valence,NA,cold_left,1667956,complete,17,578.675,1,1,6,unhappy.png
task-w6i6,valence,NA,cold_left,1667956,complete,17,1100.233,NA,0,6,unhappy.png
task-w6i6,valence,NA,cold_left,1667956,complete,18,855.845,1,1,6,unhappy.png
task-w6i6,valence,NA,cold_left,1667956,complete,18,1100.23,NA,0,6,unhappy.png
task-w6i6,valence,NA,cold_left,1667956,complete,19,739.9,1,1,6,hot.png
task-w6i6,valence,NA,cold_left,1667956,complete,19,1100.251,NA,0,6,hot.png
task-w6i6,valence,NA,cold_left,1667956,complete,20,580.24,1,1,6,hot.png
task-w6i6,valence,NA,cold_left,1667956,complete,20,1100.202,NA,0,6,hot.png
task-w6i6,valence,NA,cold_left,1667956,complete,21,400.835,1,1,6,cold.png
task-w6i6,valence,NA,cold_left,1667956,complete,21,1100.197,NA,0,6,cold.png
task-w6i6,valence,NA,cold_left,1667956,complete,22,686.155,1,1,6,happy.png
task-w6i6,valence,NA,cold_left,1667956,complete,22,1100.225,NA,0,6,happy.png
task-w6i6,valence,NA,cold_left,1667956,complete,23,835.95,1,1,6,happy.png
task-w6i6,valence,NA,cold_left,1667956,complete,23,1100.233,NA,0,6,happy.png
task-w6i6,valence,NA,cold_left,1667956,complete,24,813.93,1,1,6,unhappy.png
task-w6i6,valence,NA,cold_left,1667956,complete,24,1100.249,NA,0,6,unhappy.png
task-w6i6,valence,NA,cold_left,1667956,complete,25,820.18,1,1,6,cold.png
task-w6i6,valence,NA,cold_left,1667956,complete,25,1100.242,NA,0,6,cold.png
task-w6i6,valence,NA,cold_left,1667956,complete,26,950.14,1,1,6,hot.png
task-w6i6,valence,NA,cold_left,1667956,complete,26,1100.245,NA,0,6,hot.png
task-w6i6,valence,NA,cold_left,1667956,complete,27,1072.3,1,1,6,unhappy.png
task-w6i6,valence,NA,cold_left,1667956,complete,27,1100.242,NA,0,6,unhappy.png
task-w6i6,valence,NA,cold_left,1667956,complete,28,353.33,1,0,6,cold.png
task-w6i6,valence,NA,cold_left,1667956,complete,28,945.3,2,1,6,cold.png
task-w6i6,valence,NA,cold_left,1667956,complete,28,1100.181,NA,0,6,cold.png
task-w6i6,valence,NA,cold_left,1667956,complete,29,772.675,1,1,6,unhappy.png
task-w6i6,valence,NA,cold_left,1667956,complete,29,1100.229,NA,0,6,unhappy.png
task-w6i6,valence,NA,cold_left,1667956,complete,30,723.975,1,1,6,hot.png
task-w6i6,valence,NA,cold_left,1667956,complete,30,1100.228,NA,0,6,hot.png
task-w6i6,valence,NA,cold_left,1667956,complete,31,385.035,1,1,6,hot.png
task-w6i6,valence,NA,cold_left,1667956,complete,31,1100.193,NA,0,6,hot.png
task-w6i6,valence,NA,cold_left,1667956,complete,32,678.79,1,1,6,happy.png
task-w6i6,valence,NA,cold_left,1667956,complete,32,1100.233,NA,0,6,happy.png
task-w6i6,valence,NA,cold_left,1667956,complete,33,585.335,1,1,6,happy.png
task-w6i6,valence,NA,cold_left,1667956,complete,33,1100.211,NA,0,6,happy.png
task-w6i6,valence,NA,cold_left,1667956,complete,34,506.47,1,1,6,happy.png
task-w6i6,valence,NA,cold_left,1667956,complete,34,1100.217,NA,0,6,happy.png
task-w6i6,valence,NA,cold_left,1667956,complete,35,353.425,1,1,6,hot.png
task-w6i6,valence,NA,cold_left,1667956,complete,35,1100.23,NA,0,6,hot.png
task-w6i6,valence,NA,cold_left,1667956,complete,36,323.425,1,1,6,cold.png
task-w6i6,valence,NA,cold_left,1667956,complete,36,1100.21,NA,0,6,cold.png
task-w6i6,valence,NA,cold_left,1667956,complete,37,422.01,1,1,6,hot.png
task-w6i6,valence,NA,cold_left,1667956,complete,37,1100.215,NA,0,6,hot.png
task-w6i6,valence,NA,cold_left,1667956,complete,38,977.735,1,1,6,unhappy.png
task-w6i6,valence,NA,cold_left,1667956,complete,38,1100.242,NA,0,6,unhappy.png
task-w6i6,valence,NA,cold_left,1667956,complete,39,538.81,1,1,6,unhappy.png
task-w6i6,valence,NA,cold_left,1667956,complete,39,1100.228,NA,0,6,unhappy.png
task-w6i6,valence,NA,cold_left,1667956,complete,40,639.06,1,1,6,cold.png
task-w6i6,valence,NA,cold_left,1667956,complete,40,1100.234,NA,0,6,cold.png
task-w6i6,valence,NA,cold_left,1667956,complete,41,513.155,1,1,6,cold.png
task-w6i6,valence,NA,cold_left,1667956,complete,41,1100.218,NA,0,6,cold.png
task-w6i6,valence,NA,cold_left,1667956,complete,42,960.965,1,1,6,unhappy.png
task-w6i6,valence,NA,cold_left,1667956,complete,42,1100.231,NA,0,6,unhappy.png
task-w6i6,valence,NA,cold_left,1667956,complete,43,866.025,1,1,6,hot.png
task-w6i6,valence,NA,cold_left,1667956,complete,43,1100.228,NA,0,6,hot.png
task-w6i6,valence,NA,cold_left,1667956,complete,44,1316.23,1,1,6,happy.png
task-w6i6,valence,NA,cold_left,1667956,complete,44,1100.275,NA,0,6,happy.png
task-w6i6,valence,NA,cold_left,1667956,complete,4,2533.795,NA,0,NA,
task-w6i6,valence,NA,cold_left,1667956,complete,4,700.264,NA,0,NA,
task-w6i6,valence,NA,cold_left,1667956,complete,45,2299.475,1,1,7,unhappy.png
task-w6i6,valence,NA,cold_left,1667956,complete,45,1100.322,NA,0,7,unhappy.png
task-w6i6,valence,NA,cold_left,1667956,complete,46,601.49,1,1,7,unhappy.png
task-w6i6,valence,NA,cold_left,1667956,complete,46,1100.226,NA,0,7,unhappy.png
task-w6i6,valence,NA,cold_left,1667956,complete,47,717.98,1,1,7,happy.png
task-w6i6,valence,NA,cold_left,1667956,complete,47,1100.229,NA,0,7,happy.png
task-w6i6,valence,NA,cold_left,1667956,complete,48,735.71,1,1,7,unhappy.png
task-w6i6,valence,NA,cold_left,1667956,complete,48,1100.24,NA,0,7,unhappy.png
task-w6i6,valence,NA,cold_left,1667956,complete,49,570.39,1,1,7,happy.png
task-w6i6,valence,NA,cold_left,1667956,complete,49,1100.213,NA,0,7,happy.png
task-w6i6,valence,NA,cold_left,1667956,complete,50,552.97,1,1,7,cold.png
task-w6i6,valence,NA,cold_left,1667956,complete,50,1100.223,NA,0,7,cold.png
task-w6i6,valence,NA,cold_left,1667956,complete,51,576.86,1,1,7,hot.png
task-w6i6,valence,NA,cold_left,1667956,complete,51,1100.206,NA,0,7,hot.png
task-w6i6,valence,NA,cold_left,1667956,complete,52,1021.025,1,1,7,unhappy.png
task-w6i6,valence,NA,cold_left,1667956,complete,52,1100.236,NA,0,7,unhappy.png
task-w6i6,valence,NA,cold_left,1667956,complete,53,566.09,1,1,7,cold.png
task-w6i6,valence,NA,cold_left,1667956,complete,53,1100.221,NA,0,7,cold.png
task-w6i6,valence,NA,cold_left,1667956,complete,54,697.52,1,1,7,hot.png
task-w6i6,valence,NA,cold_left,1667956,complete,54,1100.227,NA,0,7,hot.png
task-w6i6,valence,NA,cold_left,1667956,complete,55,1111.035,1,1,7,unhappy.png
task-w6i6,valence,NA,cold_left,1667956,complete,55,1100.253,NA,0,7,unhappy.png
task-w6i6,valence,NA,cold_left,1667956,complete,56,465.88,1,1,7,unhappy.png
task-w6i6,valence,NA,cold_left,1667956,complete,56,1100.207,NA,0,7,unhappy.png
task-w6i6,valence,NA,cold_left,1667956,complete,57,610.89,1,1,7,unhappy.png
task-w6i6,valence,NA,cold_left,1667956,complete,57,1100.218,NA,0,7,unhappy.png
task-w6i6,valence,NA,cold_left,1667956,complete,58,357.215,1,1,7,cold.png
task-w6i6,valence,NA,cold_left,1667956,complete,58,1100.221,NA,0,7,cold.png
task-w6i6,valence,NA,cold_left,1667956,complete,59,554.01,1,1,7,unhappy.png
task-w6i6,valence,NA,cold_left,1667956,complete,59,1100.219,NA,0,7,unhappy.png
task-w6i6,valence,NA,cold_left,1667956,complete,60,909,1,1,7,happy.png
task-w6i6,valence,NA,cold_left,1667956,complete,60,1100.239,NA,0,7,happy.png
task-w6i6,valence,NA,cold_left,1667956,complete,61,666.545,1,1,7,unhappy.png
task-w6i6,valence,NA,cold_left,1667956,complete,61,1100.244,NA,0,7,unhappy.png
task-w6i6,valence,NA,cold_left,1667956,complete,62,818.765,1,1,7,happy.png
task-w6i6,valence,NA,cold_left,1667956,complete,62,1100.214,NA,0,7,happy.png
task-w6i6,valence,NA,cold_left,1667956,complete,63,541.595,1,1,7,unhappy.png
task-w6i6,valence,NA,cold_left,1667956,complete,63,1100.22,NA,0,7,unhappy.png
task-w6i6,valence,NA,cold_left,1667956,complete,64,559.485,1,1,7,hot.png
task-w6i6,valence,NA,cold_left,1667956,complete,64,1100.221,NA,0,7,hot.png
task-w6i6,valence,NA,cold_left,1667956,complete,65,430.725,1,1,7,hot.png
task-w6i6,valence,NA,cold_left,1667956,complete,65,1100.226,NA,0,7,hot.png
task-w6i6,valence,NA,cold_left,1667956,complete,66,592.695,1,1,7,happy.png
task-w6i6,valence,NA,cold_left,1667956,complete,66,1100.204,NA,0,7,happy.png
task-w6i6,valence,NA,cold_left,1667956,complete,67,442.865,1,1,7,hot.png
task-w6i6,valence,NA,cold_left,1667956,complete,67,1100.205,NA,0,7,hot.png
task-w6i6,valence,NA,cold_left,1667956,complete,68,656.11,1,1,7,hot.png
task-w6i6,valence,NA,cold_left,1667956,complete,68,1100.222,NA,0,7,hot.png
task-w6i6,valence,NA,cold_left,1667956,complete,69,350.87,1,1,7,hot.png
task-w6i6,valence,NA,cold_left,1667956,complete,69,1100.205,NA,0,7,hot.png
task-w6i6,valence,NA,cold_left,1667956,complete,70,422.58,1,1,7,cold.png
task-w6i6,valence,NA,cold_left,1667956,complete,70,1100.226,NA,0,7,cold.png
task-w6i6,valence,NA,cold_left,1667956,complete,71,466.035,1,1,7,unhappy.png
task-w6i6,valence,NA,cold_left,1667956,complete,71,1100.202,NA,0,7,unhappy.png
task-w6i6,valence,NA,cold_left,1667956,complete,72,632.625,1,1,7,hot.png
task-w6i6,valence,NA,cold_left,1667956,complete,72,1100.229,NA,0,7,hot.png
task-w6i6,valence,NA,cold_left,1667956,complete,73,673.92,1,1,7,hot.png
task-w6i6,valence,NA,cold_left,1667956,complete,73,1100.218,NA,0,7,hot.png
task-w6i6,valence,NA,cold_left,1667956,complete,74,768.57,1,1,7,cold.png
task-w6i6,valence,NA,cold_left,1667956,complete,74,1100.229,NA,0,7,cold.png
task-w6i6,valence,NA,cold_left,1667956,complete,75,572.825,1,0,7,happy.png
task-w6i6,valence,NA,cold_left,1667956,complete,75,1086.635,2,1,7,happy.png
task-w6i6,valence,NA,cold_left,1667956,complete,75,1100.224,NA,0,7,happy.png
task-w6i6,valence,NA,cold_left,1667956,complete,76,789.07,1,1,7,cold.png
task-w6i6,valence,NA,cold_left,1667956,complete,76,1100.243,NA,0,7,cold.png
task-w6i6,valence,NA,cold_left,1667956,complete,77,674.56,1,1,7,cold.png
task-w6i6,valence,NA,cold_left,1667956,complete,77,1100.232,NA,0,7,cold.png
task-w6i6,valence,NA,cold_left,1667956,complete,78,459.93,1,1,7,cold.png
task-w6i6,valence,NA,cold_left,1667956,complete,78,1100.223,NA,0,7,cold.png
task-w6i6,valence,NA,cold_left,1667956,complete,79,293.63,1,1,7,cold.png
task-w6i6,valence,NA,cold_left,1667956,complete,79,1100.223,NA,0,7,cold.png
task-w6i6,valence,NA,cold_left,1667956,complete,80,385.135,1,0,7,happy.png
task-w6i6,valence,NA,cold_left,1667956,complete,80,1680.805,2,1,7,happy.png
task-w6i6,valence,NA,cold_left,1667956,complete,80,1100.232,NA,0,7,happy.png
task-w6i6,valence,NA,cold_left,1667956,complete,81,472.585,1,1,7,happy.png
task-w6i6,valence,NA,cold_left,1667956,complete,81,1100.217,NA,0,7,happy.png
task-w6i6,valence,NA,cold_left,1667956,complete,82,508.34,1,1,7,happy.png
task-w6i6,valence,NA,cold_left,1667956,complete,82,1100.231,NA,0,7,happy.png
task-w6i6,valence,NA,cold_left,1667956,complete,83,552.035,1,1,7,cold.png
task-w6i6,valence,NA,cold_left,1667956,complete,83,1100.229,NA,0,7,cold.png
task-w6i6,valence,NA,cold_left,1667956,complete,84,527.475,1,1,7,hot.png
task-w6i6,valence,NA,cold_left,1667956,complete,84,1100.206,NA,0,7,hot.png
task-w6i6,valence,NA,cold_left,1667956,complete,85,351.37,1,1,7,hot.png
task-w6i6,valence,NA,cold_left,1667956,complete,85,1100.219,NA,0,7,hot.png
task-w6i6,valence,NA,cold_left,1667956,complete,86,526.625,1,1,7,happy.png
task-w6i6,valence,NA,cold_left,1667956,complete,86,1100.214,NA,0,7,happy.png
task-w6i6,valence,NA,cold_left,1667956,complete,87,464.55,1,1,7,happy.png
task-w6i6,valence,NA,cold_left,1667956,complete,87,1100.223,NA,0,7,happy.png
task-w6i6,valence,NA,cold_left,1667956,complete,88,306.595,1,1,7,cold.png
task-w6i6,valence,NA,cold_left,1667956,complete,88,1100.198,NA,0,7,cold.png
task-w6i6,valence,NA,cold_left,1667956,complete,89,645.005,1,1,7,unhappy.png
task-w6i6,valence,NA,cold_left,1667956,complete,89,1100.233,NA,0,7,unhappy.png
task-w6i6,valence,NA,cold_left,1667956,complete,90,671.915,1,1,7,cold.png
task-w6i6,valence,NA,cold_left,1667956,complete,90,1100.224,NA,0,7,cold.png
task-w6i6,valence,NA,cold_left,1667956,complete,91,586.925,1,1,7,hot.png
task-w6i6,valence,NA,cold_left,1667956,complete,91,1100.223,NA,0,7,hot.png
task-w6i6,valence,NA,cold_left,1667956,complete,92,800.835,1,1,7,happy.png
task-w6i6,valence,NA,cold_left,1667956,complete,92,1100.243,NA,0,7,happy.png
task-w6i6,valence,NA,cold_left,1667956,complete,5,2374.925,NA,0,NA,
task-w6i6,valence,NA,cold_left,1667956,complete,5,700.236,NA,0,NA,
task-w6i6,valence,NA,cold_left,1667956,complete,93,1216.785,1,1,5,unhappy.png
task-w6i6,valence,NA,cold_left,1667956,complete,93,1100.253,NA,0,5,unhappy.png
task-w6i6,valence,NA,cold_left,1667956,complete,94,615.05,1,1,5,happy.png
task-w6i6,valence,NA,cold_left,1667956,complete,94,1100.213,NA,0,5,happy.png
task-w6i6,valence,NA,cold_left,1667956,complete,95,574.035,1,1,5,unhappy.png
task-w6i6,valence,NA,cold_left,1667956,complete,95,1100.212,NA,0,5,unhappy.png
task-w6i6,valence,NA,cold_left,1667956,complete,96,463.715,1,1,5,happy.png
task-w6i6,valence,NA,cold_left,1667956,complete,96,1100.213,NA,0,5,happy.png
task-w6i6,valence,NA,cold_left,1667956,complete,97,539.63,1,1,5,happy.png
task-w6i6,valence,NA,cold_left,1667956,complete,97,1100.224,NA,0,5,happy.png
task-w6i6,valence,NA,cold_left,1667956,complete,98,468.825,1,1,5,unhappy.png
task-w6i6,valence,NA,cold_left,1667956,complete,98,1100.212,NA,0,5,unhappy.png
task-w6i6,valence,NA,cold_left,1667956,complete,6,2668.27,NA,0,NA,
task-w6i6,valence,NA,cold_left,1667956,complete,6,700.261,NA,0,NA,
task-w6i6,valence,NA,cold_left,1667956,complete,99,1794.54,1,1,3,cold.png
task-w6i6,valence,NA,cold_left,1667956,complete,99,1100.284,NA,0,3,cold.png
task-w6i6,valence,NA,cold_left,1667956,complete,100,746.385,1,1,3,happy.png
task-w6i6,valence,NA,cold_left,1667956,complete,100,1100.244,NA,0,3,happy.png
task-w6i6,valence,NA,cold_left,1667956,complete,101,522.24,1,1,3,unhappy.png
task-w6i6,valence,NA,cold_left,1667956,complete,101,1100.221,NA,0,3,unhappy.png
task-w6i6,valence,NA,cold_left,1667956,complete,102,915.83,1,1,3,happy.png
task-w6i6,valence,NA,cold_left,1667956,complete,102,1100.231,NA,0,3,happy.png
task-w6i6,valence,NA,cold_left,1667956,complete,103,2858.405,1,1,3,hot.png
task-w6i6,valence,NA,cold_left,1667956,complete,103,1100.333,NA,0,3,hot.png
task-w6i6,valence,NA,cold_left,1667956,complete,104,562.04,1,1,3,cold.png
task-w6i6,valence,NA,cold_left,1667956,complete,104,1100.203,NA,0,3,cold.png
task-w6i6,valence,NA,cold_left,1667956,complete,105,858.78,1,1,3,hot.png
task-w6i6,valence,NA,cold_left,1667956,complete,105,1100.248,NA,0,3,hot.png
task-w6i6,valence,NA,cold_left,1667956,complete,106,837.45,1,1,3,unhappy.png
task-w6i6,valence,NA,cold_left,1667956,complete,106,1100.239,NA,0,3,unhappy.png
task-w6i6,valence,NA,cold_left,1667956,complete,107,431.59,1,1,3,cold.png
task-w6i6,valence,NA,cold_left,1667956,complete,107,1100.224,NA,0,3,cold.png
task-w6i6,valence,NA,cold_left,1667956,complete,108,574.955,1,1,3,happy.png
task-w6i6,valence,NA,cold_left,1667956,complete,108,1100.211,NA,0,3,happy.png
task-w6i6,valence,NA,cold_left,1667956,complete,109,492.155,1,1,3,happy.png
task-w6i6,valence,NA,cold_left,1667956,complete,109,1100.218,NA,0,3,happy.png
task-w6i6,valence,NA,cold_left,1667956,complete,110,381.885,1,1,3,hot.png
task-w6i6,valence,NA,cold_left,1667956,complete,110,1100.225,NA,0,3,hot.png
task-w6i6,valence,NA,cold_left,1667956,complete,111,438.45,1,1,3,unhappy.png
task-w6i6,valence,NA,cold_left,1667956,complete,111,1100.218,NA,0,3,unhappy.png
task-w6i6,valence,NA,cold_left,1667956,complete,112,368.805,1,0,3,cold.png
task-w6i6,valence,NA,cold_left,1667956,complete,112,1249.715,2,1,3,cold.png
task-w6i6,valence,NA,cold_left,1667956,complete,112,1100.218,NA,0,3,cold.png
task-w6i6,valence,NA,cold_left,1667956,complete,113,645.615,1,1,3,hot.png
task-w6i6,valence,NA,cold_left,1667956,complete,113,1100.232,NA,0,3,hot.png
task-w6i6,valence,NA,cold_left,1667956,complete,114,469.85,1,1,3,unhappy.png
task-w6i6,valence,NA,cold_left,1667956,complete,114,1100.225,NA,0,3,unhappy.png
task-w6i6,valence,NA,cold_left,1667956,complete,7,1370.58,NA,0,NA,
task-w6i6,valence,NA,cold_left,1667956,complete,7,700.185,NA,0,NA,
task-w6i6,valence,NA,cold_left,1667956,complete,115,1627.985,1,1,4,hot.png
task-w6i6,valence,NA,cold_left,1667956,complete,115,1100.264,NA,0,4,hot.png
task-w6i6,valence,NA,cold_left,1667956,complete,116,386.6,1,1,4,unhappy.png
task-w6i6,valence,NA,cold_left,1667956,complete,116,1100.206,NA,0,4,unhappy.png
task-w6i6,valence,NA,cold_left,1667956,complete,117,343.02,1,0,4,unhappy.png
task-w6i6,valence,NA,cold_left,1667956,complete,117,1244.855,2,1,4,unhappy.png
task-w6i6,valence,NA,cold_left,1667956,complete,117,1100.201,NA,0,4,unhappy.png
task-w6i6,valence,NA,cold_left,1667956,complete,118,553.17,1,1,4,happy.png
task-w6i6,valence,NA,cold_left,1667956,complete,118,1100.224,NA,0,4,happy.png
task-w6i6,valence,NA,cold_left,1667956,complete,119,445.2,1,1,4,cold.png
task-w6i6,valence,NA,cold_left,1667956,complete,119,1100.232,NA,0,4,cold.png
task-w6i6,valence,NA,cold_left,1667956,complete,120,415.805,1,1,4,happy.png
task-w6i6,valence,NA,cold_left,1667956,complete,120,1100.22,NA,0,4,happy.png
task-w6i6,valence,NA,cold_left,1667956,complete,121,355.37,1,1,4,unhappy.png
task-w6i6,valence,NA,cold_left,1667956,complete,121,1100.203,NA,0,4,unhappy.png
task-w6i6,valence,NA,cold_left,1667956,complete,122,362.835,1,1,4,unhappy.png
task-w6i6,valence,NA,cold_left,1667956,complete,122,1100.215,NA,0,4,unhappy.png
task-w6i6,valence,NA,cold_left,1667956,complete,123,453.915,1,1,4,cold.png
task-w6i6,valence,NA,cold_left,1667956,complete,123,1100.225,NA,0,4,cold.png
task-w6i6,valence,NA,cold_left,1667956,complete,124,645.185,1,1,4,cold.png
task-w6i6,valence,NA,cold_left,1667956,complete,124,1100.226,NA,0,4,cold.png
task-w6i6,valence,NA,cold_left,1667956,complete,125,364.665,1,0,4,hot.png
task-w6i6,valence,NA,cold_left,1667956,complete,125,2015.12,2,1,4,hot.png
task-w6i6,valence,NA,cold_left,1667956,complete,125,1100.235,NA,0,4,hot.png
task-w6i6,valence,NA,cold_left,1667956,complete,126,492.675,1,1,4,cold.png
task-w6i6,valence,NA,cold_left,1667956,complete,126,1100.221,NA,0,4,cold.png
task-w6i6,valence,NA,cold_left,1667956,complete,127,1242.805,1,1,4,unhappy.png
task-w6i6,valence,NA,cold_left,1667956,complete,127,1100.252,NA,0,4,unhappy.png
task-w6i6,valence,NA,cold_left,1667956,complete,128,982.525,1,1,4,happy.png
task-w6i6,valence,NA,cold_left,1667956,complete,128,1100.241,NA,0,4,happy.png
task-w6i6,valence,NA,cold_left,1667956,complete,129,647.45,1,1,4,hot.png
task-w6i6,valence,NA,cold_left,1667956,complete,129,1100.207,NA,0,4,hot.png
task-w6i6,valence,NA,cold_left,1667956,complete,130,949.205,1,1,4,unhappy.png
task-w6i6,valence,NA,cold_left,1667956,complete,130,1100.255,NA,0,4,unhappy.png
task-w6i6,valence,NA,cold_left,1667956,complete,131,1047.665,1,1,4,cold.png
task-w6i6,valence,NA,cold_left,1667956,complete,131,1100.246,NA,0,4,cold.png
task-w6i6,valence,NA,cold_left,1667956,complete,132,970.3,1,1,4,unhappy.png
task-w6i6,valence,NA,cold_left,1667956,complete,132,1100.248,NA,0,4,unhappy.png
task-w6i6,valence,NA,cold_left,1667956,complete,133,605.335,1,1,4,hot.png
task-w6i6,valence,NA,cold_left,1667956,complete,133,1100.239,NA,0,4,hot.png
task-w6i6,valence,NA,cold_left,1667956,complete,134,647.925,1,1,4,unhappy.png
task-w6i6,valence,NA,cold_left,1667956,complete,134,1100.235,NA,0,4,unhappy.png
task-w6i6,valence,NA,cold_left,1667956,complete,135,777.55,1,1,4,happy.png
task-w6i6,valence,NA,cold_left,1667956,complete,135,1100.223,NA,0,4,happy.png
task-w6i6,valence,NA,cold_left,1667956,complete,136,557.04,1,1,4,happy.png
task-w6i6,valence,NA,cold_left,1667956,complete,136,1100.223,NA,0,4,happy.png
task-w6i6,valence,NA,cold_left,1667956,complete,137,418.745,1,1,4,happy.png
task-w6i6,valence,NA,cold_left,1667956,complete,137,1100.22,NA,0,4,happy.png
task-w6i6,valence,NA,cold_left,1667956,complete,138,529.59,1,1,4,hot.png
task-w6i6,valence,NA,cold_left,1667956,complete,138,1100.206,NA,0,4,hot.png
task-w6i6,valence,NA,cold_left,1667956,complete,139,466.085,1,1,4,hot.png
task-w6i6,valence,NA,cold_left,1667956,complete,139,1100.212,NA,0,4,hot.png
task-w6i6,valence,NA,cold_left,1667956,complete,140,342.87,1,1,4,hot.png
task-w6i6,valence,NA,cold_left,1667956,complete,140,1100.21,NA,0,4,hot.png
task-w6i6,valence,NA,cold_left,1667956,complete,141,454.605,1,1,4,cold.png
task-w6i6,valence,NA,cold_left,1667956,complete,141,1100.214,NA,0,4,cold.png
task-w6i6,valence,NA,cold_left,1667956,complete,142,404.355,1,1,4,cold.png
task-w6i6,valence,NA,cold_left,1667956,complete,142,1100.215,NA,0,4,cold.png
task-w6i6,valence,NA,cold_left,1667956,complete,143,567.7,1,1,4,happy.png
task-w6i6,valence,NA,cold_left,1667956,complete,143,1100.23,NA,0,4,happy.png
task-w6i6,valence,NA,cold_left,1667956,complete,144,497.58,1,1,4,happy.png
task-w6i6,valence,NA,cold_left,1667956,complete,144,1100.214,NA,0,4,happy.png
task-w6i6,valence,NA,cold_left,1667956,complete,145,519.365,1,1,4,unhappy.png
task-w6i6,valence,NA,cold_left,1667956,complete,145,1100.208,NA,0,4,unhappy.png
task-w6i6,valence,NA,cold_left,1667956,complete,146,587.505,1,1,4,unhappy.png
task-w6i6,valence,NA,cold_left,1667956,complete,146,1100.202,NA,0,4,unhappy.png
task-w6i6,valence,NA,cold_left,1667956,complete,147,591.36,1,1,4,unhappy.png
task-w6i6,valence,NA,cold_left,1667956,complete,147,1100.212,NA,0,4,unhappy.png
task-w6i6,valence,NA,cold_left,1667956,complete,148,1303.195,1,1,4,cold.png
task-w6i6,valence,NA,cold_left,1667956,complete,148,1100.257,NA,0,4,cold.png
task-w6i6,valence,NA,cold_left,1667956,complete,149,536.325,1,1,4,hot.png
task-w6i6,valence,NA,cold_left,1667956,complete,149,1100.227,NA,0,4,hot.png
task-w6i6,valence,NA,cold_left,1667956,complete,150,584.285,1,1,4,hot.png
task-w6i6,valence,NA,cold_left,1667956,complete,150,1100.217,NA,0,4,hot.png
task-w6i6,valence,NA,cold_left,1667956,complete,151,369.195,1,1,4,hot.png
task-w6i6,valence,NA,cold_left,1667956,complete,151,1100.221,NA,0,4,hot.png
task-w6i6,valence,NA,cold_left,1667956,complete,152,578.28,1,1,4,happy.png
task-w6i6,valence,NA,cold_left,1667956,complete,152,1100.219,NA,0,4,happy.png
task-w6i6,valence,NA,cold_left,1667956,complete,153,507.32,1,1,4,cold.png
task-w6i6,valence,NA,cold_left,1667956,complete,153,1100.217,NA,0,4,cold.png
task-w6i6,valence,NA,cold_left,1667956,complete,154,581.96,1,1,4,happy.png
task-w6i6,valence,NA,cold_left,1667956,complete,154,1100.239,NA,0,4,happy.png
task-w6i6,valence,NA,cold_left,1667956,complete,155,824.37,1,1,4,cold.png
task-w6i6,valence,NA,cold_left,1667956,complete,155,1100.223,NA,0,4,cold.png
task-w6i6,valence,NA,cold_left,1667956,complete,156,953.64,1,1,4,cold.png
task-w6i6,valence,NA,cold_left,1667956,complete,156,1100.235,NA,0,4,cold.png
task-w6i6,valence,NA,cold_left,1667956,complete,157,743.22,1,1,4,hot.png
task-w6i6,valence,NA,cold_left,1667956,complete,157,1100.214,NA,0,4,hot.png
task-w6i6,valence,NA,cold_left,1667956,complete,158,2915.335,1,1,4,unhappy.png
task-w6i6,valence,NA,cold_left,1667956,complete,158,1100.345,NA,0,4,unhappy.png
task-w6i6,valence,NA,cold_left,1667956,complete,159,1051.05,1,1,4,hot.png
task-w6i6,valence,NA,cold_left,1667956,complete,159,1100.245,NA,0,4,hot.png
task-w6i6,valence,NA,cold_left,1667956,complete,160,699.085,1,1,4,cold.png
task-w6i6,valence,NA,cold_left,1667956,complete,160,1100.223,NA,0,4,cold.png
task-w6i6,valence,NA,cold_left,1667956,complete,161,656.225,1,1,4,happy.png
task-w6i6,valence,NA,cold_left,1667956,complete,161,1100.228,NA,0,4,happy.png
task-w6i6,valence,NA,cold_left,1667956,complete,162,514.26,1,1,4,happy.png
task-w6i6,valence,NA,cold_left,1667956,complete,162,1100.23,NA,0,4,happy.png
task-w6i6,valence,NA,cold_left,1667956,complete,END TASK,330823,NA,0,NA,
task-w6i6,valence,NA,cold_left,1668080,complete,BEGIN TASK,,NA,0,NA,
task-w6i6,valence,NA,cold_left,1668080,complete,1,6789.73,NA,0,NA,
task-w6i6,valence,NA,cold_left,1668080,complete,1,700.395,NA,0,NA,
task-w6i6,valence,NA,cold_left,1668080,complete,1,1714.655,1,1,1,unhappy.png
task-w6i6,valence,NA,cold_left,1668080,complete,1,1100.513,NA,0,1,unhappy.png
task-w6i6,valence,NA,cold_left,1668080,complete,2,893.07,1,1,1,unhappy.png
task-w6i6,valence,NA,cold_left,1668080,complete,2,1100.568,NA,0,1,unhappy.png
task-w6i6,valence,NA,cold_left,1668080,complete,3,652.19,1,1,1,happy.png
task-w6i6,valence,NA,cold_left,1668080,complete,3,1100.415,NA,0,1,happy.png
task-w6i6,valence,NA,cold_left,1668080,complete,4,629.26,1,1,1,unhappy.png
task-w6i6,valence,NA,cold_left,1668080,complete,4,1100.283,NA,0,1,unhappy.png
task-w6i6,valence,NA,cold_left,1668080,complete,5,1484.48,1,1,1,happy.png
task-w6i6,valence,NA,cold_left,1668080,complete,5,1099.806,NA,0,1,happy.png
task-w6i6,valence,NA,cold_left,1668080,complete,6,755.465,1,1,1,happy.png
task-w6i6,valence,NA,cold_left,1668080,complete,6,1100.207,NA,0,1,happy.png
task-w6i6,valence,NA,cold_left,1668080,complete,2,3438.455,NA,0,NA,
task-w6i6,valence,NA,cold_left,1668080,complete,2,700.235,NA,0,NA,
task-w6i6,valence,NA,cold_left,1668080,complete,7,820.46,1,1,2,cold.png
task-w6i6,valence,NA,cold_left,1668080,complete,7,1100.393,NA,0,2,cold.png
task-w6i6,valence,NA,cold_left,1668080,complete,8,508.265,1,1,2,cold.png
task-w6i6,valence,NA,cold_left,1668080,complete,8,1100.291,NA,0,2,cold.png
task-w6i6,valence,NA,cold_left,1668080,complete,9,536.79,1,1,2,hot.png
task-w6i6,valence,NA,cold_left,1668080,complete,9,1100.317,NA,0,2,hot.png
task-w6i6,valence,NA,cold_left,1668080,complete,10,605.9,1,1,2,cold.png
task-w6i6,valence,NA,cold_left,1668080,complete,10,1100.394,NA,0,2,cold.png
task-w6i6,valence,NA,cold_left,1668080,complete,11,608.27,1,1,2,hot.png
task-w6i6,valence,NA,cold_left,1668080,complete,11,1100.367,NA,0,2,hot.png
task-w6i6,valence,NA,cold_left,1668080,complete,12,601.56,1,1,2,hot.png
task-w6i6,valence,NA,cold_left,1668080,complete,12,1100.319,NA,0,2,hot.png
task-w6i6,valence,NA,cold_left,1668080,complete,3,2994.28,NA,0,NA,
task-w6i6,valence,NA,cold_left,1668080,complete,3,700.472,NA,0,NA,
task-w6i6,valence,NA,cold_left,1668080,complete,13,1300.56,1,1,3,unhappy.png
task-w6i6,valence,NA,cold_left,1668080,complete,13,1100.329,NA,0,3,unhappy.png
task-w6i6,valence,NA,cold_left,1668080,complete,14,1649.635,1,1,3,unhappy.png
task-w6i6,valence,NA,cold_left,1668080,complete,14,1100.316,NA,0,3,unhappy.png
task-w6i6,valence,NA,cold_left,1668080,complete,15,1121.215,1,1,3,hot.png
task-w6i6,valence,NA,cold_left,1668080,complete,15,1100.301,NA,0,3,hot.png
task-w6i6,valence,NA,cold_left,1668080,complete,16,910.56,1,1,3,cold.png
task-w6i6,valence,NA,cold_left,1668080,complete,16,1100.133,NA,0,3,cold.png
task-w6i6,valence,NA,cold_left,1668080,complete,17,773.905,1,1,3,happy.png
task-w6i6,valence,NA,cold_left,1668080,complete,17,1100.161,NA,0,3,happy.png
task-w6i6,valence,NA,cold_left,1668080,complete,18,826.335,1,1,3,cold.png
task-w6i6,valence,NA,cold_left,1668080,complete,18,1100.283,NA,0,3,cold.png
task-w6i6,valence,NA,cold_left,1668080,complete,19,690.145,1,1,3,hot.png
task-w6i6,valence,NA,cold_left,1668080,complete,19,1100.35,NA,0,3,hot.png
task-w6i6,valence,NA,cold_left,1668080,complete,20,716.39,1,1,3,happy.png
task-w6i6,valence,NA,cold_left,1668080,complete,20,1100.355,NA,0,3,happy.png
task-w6i6,valence,NA,cold_left,1668080,complete,21,686.74,1,1,3,cold.png
task-w6i6,valence,NA,cold_left,1668080,complete,21,1100.361,NA,0,3,cold.png
task-w6i6,valence,NA,cold_left,1668080,complete,22,796.275,1,1,3,unhappy.png
task-w6i6,valence,NA,cold_left,1668080,complete,22,1100.398,NA,0,3,unhappy.png
task-w6i6,valence,NA,cold_left,1668080,complete,23,663.345,1,1,3,hot.png
task-w6i6,valence,NA,cold_left,1668080,complete,23,1100.175,NA,0,3,hot.png
task-w6i6,valence,NA,cold_left,1668080,complete,24,768.205,1,1,3,happy.png
task-w6i6,valence,NA,cold_left,1668080,complete,24,1100.277,NA,0,3,happy.png
task-w6i6,valence,NA,cold_left,1668080,complete,25,708.2,1,1,3,cold.png
task-w6i6,valence,NA,cold_left,1668080,complete,25,1100.4,NA,0,3,cold.png
task-w6i6,valence,NA,cold_left,1668080,complete,26,768.045,1,1,3,happy.png
task-w6i6,valence,NA,cold_left,1668080,complete,26,1100.272,NA,0,3,happy.png
task-w6i6,valence,NA,cold_left,1668080,complete,27,795.435,1,1,3,unhappy.png
task-w6i6,valence,NA,cold_left,1668080,complete,27,1100.331,NA,0,3,unhappy.png
task-w6i6,valence,NA,cold_left,1668080,complete,28,739.89,1,1,3,hot.png
task-w6i6,valence,NA,cold_left,1668080,complete,28,1100.333,NA,0,3,hot.png
task-w6i6,valence,NA,cold_left,1668080,complete,4,7179.33,NA,0,NA,
task-w6i6,valence,NA,cold_left,1668080,complete,4,700.544,NA,0,NA,
task-w6i6,valence,NA,cold_left,1668080,complete,29,1161.875,1,1,4,happy.png
task-w6i6,valence,NA,cold_left,1668080,complete,29,1100.253,NA,0,4,happy.png
task-w6i6,valence,NA,cold_left,1668080,complete,30,600.39,1,1,4,hot.png
task-w6i6,valence,NA,cold_left,1668080,complete,30,1100.179,NA,0,4,hot.png
task-w6i6,valence,NA,cold_left,1668080,complete,31,593.185,1,1,4,unhappy.png
task-w6i6,valence,NA,cold_left,1668080,complete,31,1100.069,NA,0,4,unhappy.png
task-w6i6,valence,NA,cold_left,1668080,complete,32,726.98,1,1,4,hot.png
task-w6i6,valence,NA,cold_left,1668080,complete,32,1100.227,NA,0,4,hot.png
task-w6i6,valence,NA,cold_left,1668080,complete,33,662.19,1,1,4,cold.png
task-w6i6,valence,NA,cold_left,1668080,complete,33,1100.056,NA,0,4,cold.png
task-w6i6,valence,NA,cold_left,1668080,complete,34,727.31,1,1,4,hot.png
task-w6i6,valence,NA,cold_left,1668080,complete,34,1100.255,NA,0,4,hot.png
task-w6i6,valence,NA,cold_left,1668080,complete,35,838.825,1,1,4,happy.png
task-w6i6,valence,NA,cold_left,1668080,complete,35,1100.512,NA,0,4,happy.png
task-w6i6,valence,NA,cold_left,1668080,complete,36,650.425,1,1,4,happy.png
task-w6i6,valence,NA,cold_left,1668080,complete,36,1100.319,NA,0,4,happy.png
task-w6i6,valence,NA,cold_left,1668080,complete,37,573.925,1,1,4,cold.png
task-w6i6,valence,NA,cold_left,1668080,complete,37,1100.305,NA,0,4,cold.png
task-w6i6,valence,NA,cold_left,1668080,complete,38,541.61,1,1,4,unhappy.png
task-w6i6,valence,NA,cold_left,1668080,complete,38,1100.382,NA,0,4,unhappy.png
task-w6i6,valence,NA,cold_left,1668080,complete,39,666.335,1,1,4,unhappy.png
task-w6i6,valence,NA,cold_left,1668080,complete,39,1100.299,NA,0,4,unhappy.png
task-w6i6,valence,NA,cold_left,1668080,complete,40,560.875,1,1,4,hot.png
task-w6i6,valence,NA,cold_left,1668080,complete,40,1100.384,NA,0,4,hot.png
task-w6i6,valence,NA,cold_left,1668080,complete,41,860.825,1,1,4,hot.png
task-w6i6,valence,NA,cold_left,1668080,complete,41,1100.271,NA,0,4,hot.png
task-w6i6,valence,NA,cold_left,1668080,complete,42,652.94,1,1,4,unhappy.png
task-w6i6,valence,NA,cold_left,1668080,complete,42,1100.225,NA,0,4,unhappy.png
task-w6i6,valence,NA,cold_left,1668080,complete,43,556.065,1,1,4,unhappy.png
task-w6i6,valence,NA,cold_left,1668080,complete,43,1100.32,NA,0,4,unhappy.png
task-w6i6,valence,NA,cold_left,1668080,complete,44,699.26,1,1,4,unhappy.png
task-w6i6,valence,NA,cold_left,1668080,complete,44,1100.365,NA,0,4,unhappy.png
task-w6i6,valence,NA,cold_left,1668080,complete,45,692.52,1,1,4,unhappy.png
task-w6i6,valence,NA,cold_left,1668080,complete,45,1100.341,NA,0,4,unhappy.png
task-w6i6,valence,NA,cold_left,1668080,complete,46,825.595,1,1,4,cold.png
task-w6i6,valence,NA,cold_left,1668080,complete,46,1100.386,NA,0,4,cold.png
task-w6i6,valence,NA,cold_left,1668080,complete,47,752.14,1,1,4,unhappy.png
task-w6i6,valence,NA,cold_left,1668080,complete,47,1100.375,NA,0,4,unhappy.png
task-w6i6,valence,NA,cold_left,1668080,complete,48,613.675,1,1,4,happy.png
task-w6i6,valence,NA,cold_left,1668080,complete,48,1100.459,NA,0,4,happy.png
task-w6i6,valence,NA,cold_left,1668080,complete,49,629.315,1,1,4,cold.png
task-w6i6,valence,NA,cold_left,1668080,complete,49,1100.324,NA,0,4,cold.png
task-w6i6,valence,NA,cold_left,1668080,complete,50,848.035,1,1,4,cold.png
task-w6i6,valence,NA,cold_left,1668080,complete,50,1100.231,NA,0,4,cold.png
task-w6i6,valence,NA,cold_left,1668080,complete,51,824.195,1,1,4,unhappy.png
task-w6i6,valence,NA,cold_left,1668080,complete,51,1100.436,NA,0,4,unhappy.png
task-w6i6,valence,NA,cold_left,1668080,complete,52,691.885,1,1,4,happy.png
task-w6i6,valence,NA,cold_left,1668080,complete,52,1100.294,NA,0,4,happy.png
task-w6i6,valence,NA,cold_left,1668080,complete,53,615.91,1,1,4,happy.png
task-w6i6,valence,NA,cold_left,1668080,complete,53,1100.382,NA,0,4,happy.png
task-w6i6,valence,NA,cold_left,1668080,complete,54,597.085,1,1,4,happy.png
task-w6i6,valence,NA,cold_left,1668080,complete,54,1100.334,NA,0,4,happy.png
task-w6i6,valence,NA,cold_left,1668080,complete,55,845.76,1,1,4,hot.png
task-w6i6,valence,NA,cold_left,1668080,complete,55,1100.241,NA,0,4,hot.png
task-w6i6,valence,NA,cold_left,1668080,complete,56,647.795,1,1,4,happy.png
task-w6i6,valence,NA,cold_left,1668080,complete,56,1100.301,NA,0,4,happy.png
task-w6i6,valence,NA,cold_left,1668080,complete,57,585.33,1,1,4,cold.png
task-w6i6,valence,NA,cold_left,1668080,complete,57,1100.411,NA,0,4,cold.png
task-w6i6,valence,NA,cold_left,1668080,complete,58,601.935,1,1,4,hot.png
task-w6i6,valence,NA,cold_left,1668080,complete,58,1100.494,NA,0,4,hot.png
task-w6i6,valence,NA,cold_left,1668080,complete,59,778.555,1,1,4,unhappy.png
task-w6i6,valence,NA,cold_left,1668080,complete,59,1100.345,NA,0,4,unhappy.png
task-w6i6,valence,NA,cold_left,1668080,complete,60,1124.475,1,1,4,cold.png
task-w6i6,valence,NA,cold_left,1668080,complete,60,1100.392,NA,0,4,cold.png
task-w6i6,valence,NA,cold_left,1668080,complete,61,571.2,1,1,4,cold.png
task-w6i6,valence,NA,cold_left,1668080,complete,61,1100.349,NA,0,4,cold.png
task-w6i6,valence,NA,cold_left,1668080,complete,62,738.865,1,1,4,happy.png
task-w6i6,valence,NA,cold_left,1668080,complete,62,1100.284,NA,0,4,happy.png
task-w6i6,valence,NA,cold_left,1668080,complete,63,794.215,1,1,4,hot.png
task-w6i6,valence,NA,cold_left,1668080,complete,63,1100.262,NA,0,4,hot.png
task-w6i6,valence,NA,cold_left,1668080,complete,64,649.955,1,1,4,cold.png
task-w6i6,valence,NA,cold_left,1668080,complete,64,1100.359,NA,0,4,cold.png
task-w6i6,valence,NA,cold_left,1668080,complete,65,1230.745,1,1,4,unhappy.png
task-w6i6,valence,NA,cold_left,1668080,complete,65,1100.551,NA,0,4,unhappy.png
task-w6i6,valence,NA,cold_left,1668080,complete,66,694.73,1,1,4,cold.png
task-w6i6,valence,NA,cold_left,1668080,complete,66,1100.363,NA,0,4,cold.png
task-w6i6,valence,NA,cold_left,1668080,complete,67,667.905,1,1,4,happy.png
task-w6i6,valence,NA,cold_left,1668080,complete,67,1100.278,NA,0,4,happy.png
task-w6i6,valence,NA,cold_left,1668080,complete,68,707.765,1,1,4,happy.png
task-w6i6,valence,NA,cold_left,1668080,complete,68,1100.444,NA,0,4,happy.png
task-w6i6,valence,NA,cold_left,1668080,complete,69,394.505,1,1,4,hot.png
task-w6i6,valence,NA,cold_left,1668080,complete,69,1100.275,NA,0,4,hot.png
task-w6i6,valence,NA,cold_left,1668080,complete,70,526.115,1,1,4,hot.png
task-w6i6,valence,NA,cold_left,1668080,complete,70,1100.379,NA,0,4,hot.png
task-w6i6,valence,NA,cold_left,1668080,complete,71,482.865,1,1,4,hot.png
task-w6i6,valence,NA,cold_left,1668080,complete,71,1100.528,NA,0,4,hot.png
task-w6i6,valence,NA,cold_left,1668080,complete,72,528.72,1,1,4,cold.png
task-w6i6,valence,NA,cold_left,1668080,complete,72,1100.354,NA,0,4,cold.png
task-w6i6,valence,NA,cold_left,1668080,complete,73,527.745,1,1,4,happy.png
task-w6i6,valence,NA,cold_left,1668080,complete,73,1100.46,NA,0,4,happy.png
task-w6i6,valence,NA,cold_left,1668080,complete,74,613.945,1,1,4,cold.png
task-w6i6,valence,NA,cold_left,1668080,complete,74,1100.317,NA,0,4,cold.png
task-w6i6,valence,NA,cold_left,1668080,complete,75,566.895,1,1,4,hot.png
task-w6i6,valence,NA,cold_left,1668080,complete,75,1100.489,NA,0,4,hot.png
task-w6i6,valence,NA,cold_left,1668080,complete,76,732.685,1,1,4,unhappy.png
task-w6i6,valence,NA,cold_left,1668080,complete,76,1100.482,NA,0,4,unhappy.png
task-w6i6,valence,NA,cold_left,1668080,complete,5,5086.595,NA,0,NA,
task-w6i6,valence,NA,cold_left,1668080,complete,5,699.411,NA,0,NA,
task-w6i6,valence,NA,cold_left,1668080,complete,77,790.195,1,1,5,unhappy.png
task-w6i6,valence,NA,cold_left,1668080,complete,77,1100.313,NA,0,5,unhappy.png
task-w6i6,valence,NA,cold_left,1668080,complete,78,559.22,1,1,5,happy.png
task-w6i6,valence,NA,cold_left,1668080,complete,78,1100.332,NA,0,5,happy.png
task-w6i6,valence,NA,cold_left,1668080,complete,79,602.09,1,1,5,happy.png
task-w6i6,valence,NA,cold_left,1668080,complete,79,1100.443,NA,0,5,happy.png
task-w6i6,valence,NA,cold_left,1668080,complete,80,517.82,1,1,5,unhappy.png
task-w6i6,valence,NA,cold_left,1668080,complete,80,1100.502,NA,0,5,unhappy.png
task-w6i6,valence,NA,cold_left,1668080,complete,81,482.005,1,1,5,happy.png
task-w6i6,valence,NA,cold_left,1668080,complete,81,1100.45,NA,0,5,happy.png
task-w6i6,valence,NA,cold_left,1668080,complete,82,482.505,1,1,5,unhappy.png
task-w6i6,valence,NA,cold_left,1668080,complete,82,1100.478,NA,0,5,unhappy.png
task-w6i6,valence,NA,cold_left,1668080,complete,6,3720.32,NA,0,NA,
task-w6i6,valence,NA,cold_left,1668080,complete,6,700.462,NA,0,NA,
task-w6i6,valence,NA,cold_left,1668080,complete,83,1192.48,1,1,6,unhappy.png
task-w6i6,valence,NA,cold_left,1668080,complete,83,1100.18,NA,0,6,unhappy.png
task-w6i6,valence,NA,cold_left,1668080,complete,84,1005.125,1,1,6,happy.png
task-w6i6,valence,NA,cold_left,1668080,complete,84,1100.386,NA,0,6,happy.png
task-w6i6,valence,NA,cold_left,1668080,complete,85,764.495,1,1,6,cold.png
task-w6i6,valence,NA,cold_left,1668080,complete,85,1100.439,NA,0,6,cold.png
task-w6i6,valence,NA,cold_left,1668080,complete,86,1049.445,1,1,6,happy.png
task-w6i6,valence,NA,cold_left,1668080,complete,86,1100.329,NA,0,6,happy.png
task-w6i6,valence,NA,cold_left,1668080,complete,87,944.815,1,1,6,hot.png
task-w6i6,valence,NA,cold_left,1668080,complete,87,1100.3,NA,0,6,hot.png
task-w6i6,valence,NA,cold_left,1668080,complete,88,883.055,1,1,6,happy.png
task-w6i6,valence,NA,cold_left,1668080,complete,88,1100.329,NA,0,6,happy.png
task-w6i6,valence,NA,cold_left,1668080,complete,89,1300.38,1,1,6,happy.png
task-w6i6,valence,NA,cold_left,1668080,complete,89,1100.446,NA,0,6,happy.png
task-w6i6,valence,NA,cold_left,1668080,complete,90,931.615,1,1,6,cold.png
task-w6i6,valence,NA,cold_left,1668080,complete,90,1100.317,NA,0,6,cold.png
task-w6i6,valence,NA,cold_left,1668080,complete,91,925.34,1,1,6,happy.png
task-w6i6,valence,NA,cold_left,1668080,complete,91,1100.337,NA,0,6,happy.png
task-w6i6,valence,NA,cold_left,1668080,complete,92,888.63,1,1,6,cold.png
task-w6i6,valence,NA,cold_left,1668080,complete,92,1100.234,NA,0,6,cold.png
task-w6i6,valence,NA,cold_left,1668080,complete,93,838.385,1,1,6,cold.png
task-w6i6,valence,NA,cold_left,1668080,complete,93,1100.22,NA,0,6,cold.png
task-w6i6,valence,NA,cold_left,1668080,complete,94,1008.455,1,1,6,unhappy.png
task-w6i6,valence,NA,cold_left,1668080,complete,94,1100.567,NA,0,6,unhappy.png
task-w6i6,valence,NA,cold_left,1668080,complete,95,656.68,1,1,6,hot.png
task-w6i6,valence,NA,cold_left,1668080,complete,95,1100.321,NA,0,6,hot.png
task-w6i6,valence,NA,cold_left,1668080,complete,96,745.5,1,1,6,cold.png
task-w6i6,valence,NA,cold_left,1668080,complete,96,1100.539,NA,0,6,cold.png
task-w6i6,valence,NA,cold_left,1668080,complete,97,800.325,1,1,6,hot.png
task-w6i6,valence,NA,cold_left,1668080,complete,97,1100.201,NA,0,6,hot.png
task-w6i6,valence,NA,cold_left,1668080,complete,98,933.19,1,1,6,unhappy.png
task-w6i6,valence,NA,cold_left,1668080,complete,98,1100.395,NA,0,6,unhappy.png
task-w6i6,valence,NA,cold_left,1668080,complete,99,992.825,1,1,6,hot.png
task-w6i6,valence,NA,cold_left,1668080,complete,99,1100.37,NA,0,6,hot.png
task-w6i6,valence,NA,cold_left,1668080,complete,100,1268.05,1,1,6,unhappy.png
task-w6i6,valence,NA,cold_left,1668080,complete,100,1100.434,NA,0,6,unhappy.png
task-w6i6,valence,NA,cold_left,1668080,complete,101,784.335,1,1,6,unhappy.png
task-w6i6,valence,NA,cold_left,1668080,complete,101,1100.132,NA,0,6,unhappy.png
task-w6i6,valence,NA,cold_left,1668080,complete,102,853.05,1,1,6,unhappy.png
task-w6i6,valence,NA,cold_left,1668080,complete,102,1100.286,NA,0,6,unhappy.png
task-w6i6,valence,NA,cold_left,1668080,complete,103,771.055,1,1,6,cold.png
task-w6i6,valence,NA,cold_left,1668080,complete,103,1100.542,NA,0,6,cold.png
task-w6i6,valence,NA,cold_left,1668080,complete,104,769.55,1,1,6,cold.png
task-w6i6,valence,NA,cold_left,1668080,complete,104,1100.347,NA,0,6,cold.png
task-w6i6,valence,NA,cold_left,1668080,complete,105,808.885,1,1,6,hot.png
task-w6i6,valence,NA,cold_left,1668080,complete,105,1100.431,NA,0,6,hot.png
task-w6i6,valence,NA,cold_left,1668080,complete,106,1045.72,1,1,6,unhappy.png
task-w6i6,valence,NA,cold_left,1668080,complete,106,1100.585,NA,0,6,unhappy.png
task-w6i6,valence,NA,cold_left,1668080,complete,107,790.97,1,1,6,unhappy.png
task-w6i6,valence,NA,cold_left,1668080,complete,107,1100.469,NA,0,6,unhappy.png
task-w6i6,valence,NA,cold_left,1668080,complete,108,992.185,1,1,6,happy.png
task-w6i6,valence,NA,cold_left,1668080,complete,108,1100.453,NA,0,6,happy.png
task-w6i6,valence,NA,cold_left,1668080,complete,109,808.925,1,1,6,cold.png
task-w6i6,valence,NA,cold_left,1668080,complete,109,1100.4,NA,0,6,cold.png
task-w6i6,valence,NA,cold_left,1668080,complete,110,917.585,1,1,6,happy.png
task-w6i6,valence,NA,cold_left,1668080,complete,110,1100.308,NA,0,6,happy.png
task-w6i6,valence,NA,cold_left,1668080,complete,111,575.065,1,1,6,happy.png
task-w6i6,valence,NA,cold_left,1668080,complete,111,1100.262,NA,0,6,happy.png
task-w6i6,valence,NA,cold_left,1668080,complete,112,1247.905,1,1,6,hot.png
task-w6i6,valence,NA,cold_left,1668080,complete,112,1100.193,NA,0,6,hot.png
task-w6i6,valence,NA,cold_left,1668080,complete,113,1107.285,1,1,6,hot.png
task-w6i6,valence,NA,cold_left,1668080,complete,113,1100.165,NA,0,6,hot.png
task-w6i6,valence,NA,cold_left,1668080,complete,114,1114.65,1,1,6,hot.png
task-w6i6,valence,NA,cold_left,1668080,complete,114,1100.236,NA,0,6,hot.png
task-w6i6,valence,NA,cold_left,1668080,complete,7,6702.7,NA,0,NA,
task-w6i6,valence,NA,cold_left,1668080,complete,7,700.026,NA,0,NA,
task-w6i6,valence,NA,cold_left,1668080,complete,115,989.04,1,1,7,unhappy.png
task-w6i6,valence,NA,cold_left,1668080,complete,115,1100.219,NA,0,7,unhappy.png
task-w6i6,valence,NA,cold_left,1668080,complete,116,719.38,1,1,7,cold.png
task-w6i6,valence,NA,cold_left,1668080,complete,116,1100.272,NA,0,7,cold.png
task-w6i6,valence,NA,cold_left,1668080,complete,117,437.195,1,1,7,hot.png
task-w6i6,valence,NA,cold_left,1668080,complete,117,1100.255,NA,0,7,hot.png
task-w6i6,valence,NA,cold_left,1668080,complete,118,658.535,1,1,7,hot.png
task-w6i6,valence,NA,cold_left,1668080,complete,118,1100.342,NA,0,7,hot.png
task-w6i6,valence,NA,cold_left,1668080,complete,119,1652.8,1,1,7,unhappy.png
task-w6i6,valence,NA,cold_left,1668080,complete,119,1100.546,NA,0,7,unhappy.png
task-w6i6,valence,NA,cold_left,1668080,complete,120,840.3,1,1,7,hot.png
task-w6i6,valence,NA,cold_left,1668080,complete,120,1100.265,NA,0,7,hot.png
task-w6i6,valence,NA,cold_left,1668080,complete,121,946.915,1,1,7,unhappy.png
task-w6i6,valence,NA,cold_left,1668080,complete,121,1100.17,NA,0,7,unhappy.png
task-w6i6,valence,NA,cold_left,1668080,complete,122,754.015,1,1,7,unhappy.png
task-w6i6,valence,NA,cold_left,1668080,complete,122,1100.286,NA,0,7,unhappy.png
task-w6i6,valence,NA,cold_left,1668080,complete,123,830.745,1,1,7,happy.png
